timestamp,ax,ay,az,gx,gy,gz,activity
64417, -0.031616, 0.242920, -0.967529, 0.366211, -0.122070, -0.183106,sit
64437, -0.032349, 0.242310, -0.968262, 0.366211, -0.122070, -0.244141,sit
64457, -0.032471, 0.242676, -0.967896, 0.305176, -0.122070, -0.244141,sit
64477, -0.032715, 0.242676, -0.968384, 0.427246, -0.122070, -0.183106,sit
64497, -0.031006, 0.241943, -0.967896, 0.427246, -0.122070, -0.244141,sit
64517, -0.030640, 0.242920, -0.968384, 0.427246, -0.183106, -0.183106,sit
64537, -0.031982, 0.242554, -0.968262, 0.366211, -0.122070, -0.183106,sit
64557, -0.031738, 0.243408, -0.968018, 0.366211, -0.122070, -0.244141,sit
64577, -0.031860, 0.241577, -0.968018, 0.427246, -0.122070, -0.183106,sit
64597, -0.032104, 0.242798, -0.968384, 0.366211, -0.061035, -0.183106,sit
64617, -0.031860, 0.242798, -0.968140, 0.366211, -0.122070, -0.183106,sit
64637, -0.031860, 0.241577, -0.967651, 0.366211, -0.122070, -0.183106,sit
64657, -0.031982, 0.242676, -0.967529, 0.305176, -0.122070, -0.183106,sit
64677, -0.032104, 0.243530, -0.968140, 0.366211, -0.122070, -0.183106,sit
64697, -0.031616, 0.242310, -0.968140, 0.366211, -0.122070, -0.244141,sit
64717, -0.031860, 0.242310, -0.968140, 0.366211, -0.122070, -0.183106,sit
64737, -0.031128, 0.242432, -0.968506, 0.366211, -0.183106, -0.244141,sit
64757, -0.031494, 0.243042, -0.967041, 0.366211, -0.122070, -0.183106,sit
64777, -0.032837, 0.242798, -0.968384, 0.427246, -0.122070, -0.183106,sit
64797, -0.031738, 0.242310, -0.968750, 0.366211, -0.122070, -0.183106,sit
64817, -0.031860, 0.242432, -0.967896, 0.366211, -0.183106, -0.183106,sit
64837, -0.031616, 0.242920, -0.967529, 0.366211, -0.122070, -0.244141,sit
64857, -0.031128, 0.242554, -0.968384, 0.427246, -0.122070, -0.183106,sit
64877, -0.031616, 0.242188, -0.968628, 0.427246, -0.122070, -0.183106,sit
64897, -0.033325, 0.242798, -0.968140, 0.366211, -0.183106, -0.244141,sit
64917, -0.032104, 0.243530, -0.968140, 0.427246, -0.183106, -0.244141,sit
64937, -0.032227, 0.242554, -0.968994, 0.427246, -0.244141, -0.183106,sit
64957, -0.032349, 0.242432, -0.968262, 0.366211, -0.183106, -0.244141,sit
64977, -0.032349, 0.241943, -0.967896, 0.366211, -0.183106, -0.244141,sit
64997, -0.032593, 0.242310, -0.968628, 0.427246, -0.183106, -0.244141,sit
65017, -0.032349, 0.243774, -0.968994, 0.427246, -0.244141, -0.183106,sit
65037, -0.031372, 0.241821, -0.967163, 0.427246, -0.244141, -0.244141,sit
65057, -0.033447, 0.242554, -0.967407, 0.366211, -0.183106, -0.244141,sit
65077, -0.032104, 0.242554, -0.967163, 0.427246, -0.183106, -0.244141,sit
65097, -0.032349, 0.242065, -0.967041, 0.427246, -0.183106, -0.244141,sit
65117, -0.031860, 0.242188, -0.967529, 0.427246, -0.183106, -0.244141,sit
65137, -0.033936, 0.242554, -0.968628, 0.427246, -0.183106, -0.244141,sit
65157, -0.031006, 0.242188, -0.967285, 0.305176, -0.122070, -0.244141,sit
65177, -0.033203, 0.242432, -0.968384, 0.366211, -0.122070, -0.244141,sit
65197, -0.033813, 0.241943, -0.968384, 0.427246, -0.183106, -0.183106,sit
65217, -0.031616, 0.242920, -0.967163, 0.366211, -0.183106, -0.244141,sit
65237, -0.033203, 0.242065, -0.967896, 0.366211, -0.122070, -0.183106,sit
65257, -0.031738, 0.241089, -0.968140, 0.366211, -0.122070, -0.183106,sit
65277, -0.031494, 0.242310, -0.967651, 0.366211, -0.122070, -0.244141,sit
65297, -0.033081, 0.242432, -0.968506, 0.366211, -0.183106, -0.183106,sit
65317, -0.030762, 0.241943, -0.968262, 0.366211, -0.122070, -0.183106,sit
65337, -0.032104, 0.242188, -0.968628, 0.427246, -0.183106, -0.244141,sit
65357, -0.032715, 0.242676, -0.968140, 0.366211, -0.183106, -0.183106,sit
65377, -0.031738, 0.242310, -0.968872, 0.427246, -0.183106, -0.244141,sit
65397, -0.032349, 0.242554, -0.968750, 0.366211, -0.183106, -0.244141,sit
65417, -0.033203, 0.241577, -0.967407, 0.366211, -0.183106, -0.244141,sit
65437, -0.031616, 0.243164, -0.968384, 0.366211, -0.183106, -0.244141,sit
65457, -0.032471, 0.241821, -0.967773, 0.427246, -0.183106, -0.244141,sit
65477, -0.032837, 0.242188, -0.968018, 0.366211, -0.122070, -0.183106,sit
65497, -0.031494, 0.241455, -0.966797, 0.366211, -0.122070, -0.183106,sit
65517, -0.033203, 0.241455, -0.968262, 0.366211, -0.122070, -0.244141,sit
65537, -0.032349, 0.241943, -0.967773, 0.366211, -0.122070, -0.183106,sit
65557, -0.032593, 0.241577, -0.967041, 0.366211, -0.183106, -0.183106,sit
65577, -0.032349, 0.241821, -0.968872, 0.427246, -0.122070, -0.244141,sit
65597, -0.033203, 0.242065, -0.968384, 0.366211, -0.183106, -0.183106,sit
65617, -0.031494, 0.242432, -0.968140, 0.366211, -0.122070, -0.183106,sit
65637, -0.032471, 0.241577, -0.968628, 0.366211, -0.183106, -0.183106,sit
65657, -0.031982, 0.243042, -0.967773, 0.366211, -0.122070, -0.183106,sit
65677, -0.031616, 0.242432, -0.968018, 0.366211, -0.122070, -0.183106,sit
65697, -0.032593, 0.243042, -0.968018, 0.366211, -0.122070, -0.244141,sit
65717, -0.032104, 0.242432, -0.968384, 0.366211, -0.122070, -0.183106,sit
65737, -0.031982, 0.242188, -0.968628, 0.305176, -0.122070, -0.183106,sit
65757, -0.031738, 0.241821, -0.968262, 0.366211, -0.183106, -0.183106,sit
65777, -0.032471, 0.241455, -0.968628, 0.366211, -0.122070, -0.183106,sit
65797, -0.032349, 0.240967, -0.967651, 0.366211, -0.122070, -0.183106,sit
65817, -0.033203, 0.242920, -0.968994, 0.366211, -0.183106, -0.183106,sit
65837, -0.032593, 0.241821, -0.967896, 0.366211, -0.122070, -0.183106,sit
65857, -0.032959, 0.242432, -0.968262, 0.366211, -0.122070, -0.183106,sit
65877, -0.032593, 0.241699, -0.968872, 0.366211, -0.122070, -0.183106,sit
65897, -0.031860, 0.242798, -0.968262, 0.366211, -0.122070, -0.183106,sit
65917, -0.031860, 0.241577, -0.968140, 0.366211, -0.122070, -0.183106,sit
65937, -0.032593, 0.242310, -0.968506, 0.366211, -0.183106, -0.183106,sit
65957, -0.031372, 0.241943, -0.967529, 0.305176, -0.122070, -0.183106,sit
65977, -0.032104, 0.241699, -0.968628, 0.366211, -0.122070, -0.183106,sit
65997, -0.032349, 0.242676, -0.968384, 0.366211, -0.122070, -0.183106,sit
66017, -0.032349, 0.242065, -0.968262, 0.366211, -0.122070, -0.183106,sit
66037, -0.032715, 0.242676, -0.967773, 0.366211, -0.122070, -0.183106,sit
66057, -0.032104, 0.242798, -0.968384, 0.366211, -0.122070, -0.183106,sit
66077, -0.031860, 0.242310, -0.968384, 0.366211, -0.122070, -0.183106,sit
66097, -0.032837, 0.241821, -0.968262, 0.366211, -0.122070, -0.183106,sit
66117, -0.032104, 0.242188, -0.968506, 0.366211, -0.122070, -0.183106,sit
66137, -0.031738, 0.242554, -0.968262, 0.366211, -0.122070, -0.183106,sit
66157, -0.032349, 0.242432, -0.968018, 0.366211, -0.122070, -0.183106,sit
66177, -0.032349, 0.242676, -0.968018, 0.366211, -0.122070, -0.183106,sit
66197, -0.033203, 0.241821, -0.968628, 0.366211, -0.122070, -0.183106,sit
66217, -0.032349, 0.242065, -0.968750, 0.305176, -0.122070, -0.183106,sit
66237, -0.031738, 0.241699, -0.967773, 0.366211, -0.122070, -0.183106,sit
66257, -0.032837, 0.242188, -0.968750, 0.366211, -0.122070, -0.183106,sit
66277, -0.031982, 0.241455, -0.968506, 0.366211, -0.183106, -0.183106,sit
66297, -0.032227, 0.242065, -0.966797, 0.366211, -0.122070, -0.244141,sit
66317, -0.032715, 0.242554, -0.968140, 0.366211, -0.122070, -0.183106,sit
66337, -0.032471, 0.242920, -0.968140, 0.427246, -0.122070, -0.244141,sit
66357, -0.032471, 0.241333, -0.968750, 0.305176, -0.122070, -0.183106,sit
66377, -0.032837, 0.241943, -0.968262, 0.305176, -0.122070, -0.183106,sit
66397, -0.032349, 0.242554, -0.968018, 0.366211, -0.122070, -0.183106,sit
66417, -0.031616, 0.242065, -0.968628, 0.366211, -0.122070, -0.183106,sit
66437, -0.032837, 0.241455, -0.968506, 0.305176, -0.122070, -0.183106,sit
66457, -0.032227, 0.242920, -0.968628, 0.366211, -0.122070, -0.183106,sit
66477, -0.032104, 0.241821, -0.967651, 0.366211, -0.122070, -0.244141,sit
66497, -0.032837, 0.243652, -0.968384, 0.366211, -0.122070, -0.183106,sit
66517, -0.032227, 0.242798, -0.968506, 0.366211, -0.122070, -0.183106,sit
66537, -0.031738, 0.240845, -0.968384, 0.366211, -0.122070, -0.183106,sit
66557, -0.032104, 0.242065, -0.968384, 0.305176, -0.122070, -0.183106,sit
66577, -0.031860, 0.242310, -0.968262, 0.366211, -0.122070, -0.183106,sit
66597, -0.032715, 0.242188, -0.968506, 0.366211, -0.122070, -0.183106,sit
66617, -0.032104, 0.242798, -0.968506, 0.366211, -0.122070, -0.244141,sit
66637, -0.032104, 0.243408, -0.968262, 0.366211, -0.122070, -0.183106,sit
66657, -0.032227, 0.242676, -0.968506, 0.366211, -0.122070, -0.183106,sit
66677, -0.032104, 0.241577, -0.968750, 0.366211, -0.122070, -0.183106,sit
66697, -0.032593, 0.241211, -0.968262, 0.366211, -0.122070, -0.183106,sit
66717, -0.032593, 0.241577, -0.968506, 0.366211, -0.183106, -0.244141,sit
66737, -0.031982, 0.242188, -0.967651, 0.366211, -0.122070, -0.183106,sit
66757, -0.032227, 0.243164, -0.968506, 0.366211, -0.122070, -0.183106,sit
66777, -0.032227, 0.242065, -0.968384, 0.366211, -0.122070, -0.183106,sit
66797, -0.033203, 0.242432, -0.968628, 0.366211, -0.122070, -0.244141,sit
66817, -0.031860, 0.242798, -0.967896, 0.366211, -0.122070, -0.183106,sit
66837, -0.032959, 0.243042, -0.967651, 0.366211, -0.122070, -0.183106,sit
66857, -0.032227, 0.242065, -0.968506, 0.305176, -0.122070, -0.183106,sit
66877, -0.032837, 0.242065, -0.968506, 0.366211, -0.122070, -0.183106,sit
66897, -0.032837, 0.242432, -0.968262, 0.366211, -0.122070, -0.244141,sit
66917, -0.032349, 0.242554, -0.968628, 0.366211, -0.122070, -0.183106,sit
66937, -0.031006, 0.241821, -0.968994, 0.427246, -0.122070, -0.183106,sit
66957, -0.032349, 0.241577, -0.968506, 0.366211, -0.122070, -0.183106,sit
66977, -0.032593, 0.243164, -0.968140, 0.305176, -0.122070, -0.244141,sit
66997, -0.032593, 0.242554, -0.968750, 0.366211, -0.122070, -0.183106,sit
67017, -0.032471, 0.242920, -0.968628, 0.366211, -0.183106, -0.244141,sit
67037, -0.032349, 0.242432, -0.967896, 0.305176, -0.122070, -0.183106,sit
67057, -0.032471, 0.242554, -0.968384, 0.366211, -0.122070, -0.183106,sit
67077, -0.031860, 0.243164, -0.968262, 0.366211, -0.122070, -0.244141,sit
67097, -0.031738, 0.242920, -0.968018, 0.366211, -0.122070, -0.183106,sit
67117, -0.031982, 0.242920, -0.968750, 0.366211, -0.122070, -0.183106,sit
67137, -0.032227, 0.242310, -0.968018, 0.366211, -0.122070, -0.244141,sit
67157, -0.031006, 0.242432, -0.968750, 0.366211, -0.122070, -0.183106,sit
67177, -0.033081, 0.242188, -0.968140, 0.366211, -0.122070, -0.183106,sit
67197, -0.032227, 0.243042, -0.968628, 0.366211, -0.122070, -0.183106,sit
67217, -0.032715, 0.241455, -0.967896, 0.366211, -0.122070, -0.183106,sit
67237, -0.033203, 0.242920, -0.969116, 0.366211, -0.122070, -0.183106,sit
67257, -0.032104, 0.241821, -0.967896, 0.366211, -0.122070, -0.183106,sit
67277, -0.032227, 0.242676, -0.967773, 0.366211, -0.122070, -0.183106,sit
67297, -0.032837, 0.242676, -0.968872, 0.305176, -0.122070, -0.183106,sit
67317, -0.032593, 0.242188, -0.968262, 0.366211, -0.122070, -0.244141,sit
67337, -0.032471, 0.242676, -0.968140, 0.366211, -0.183106, -0.183106,sit
67357, -0.031860, 0.241821, -0.968384, 0.305176, -0.122070, -0.183106,sit
67377, -0.032593, 0.243042, -0.968262, 0.427246, -0.122070, -0.183106,sit
67397, -0.032349, 0.241943, -0.968262, 0.366211, -0.122070, -0.183106,sit
67417, -0.032471, 0.242920, -0.968140, 0.366211, -0.122070, -0.183106,sit
67437, -0.032471, 0.243042, -0.967773, 0.366211, -0.122070, -0.183106,sit
67457, -0.031982, 0.242798, -0.968384, 0.366211, -0.061035, -0.183106,sit
67477, -0.032959, 0.242432, -0.969238, 0.305176, -0.122070, -0.183106,sit
67497, -0.030762, 0.241821, -0.968262, 0.366211, -0.122070, -0.244141,sit
67517, -0.032349, 0.243408, -0.968628, 0.366211, -0.122070, -0.183106,sit
67537, -0.032837, 0.242920, -0.967529, 0.427246, -0.122070, -0.183106,sit
67557, -0.032471, 0.242432, -0.967896, 0.366211, -0.122070, -0.244141,sit
67577, -0.032227, 0.242188, -0.968262, 0.305176, -0.122070, -0.183106,sit
67597, -0.032959, 0.243408, -0.968140, 0.366211, -0.122070, -0.183106,sit
67617, -0.032593, 0.242554, -0.967651, 0.366211, -0.122070, -0.183106,sit
67637, -0.032837, 0.242310, -0.968750, 0.305176, -0.122070, -0.183106,sit
67657, -0.032471, 0.242920, -0.967896, 0.366211, -0.183106, -0.183106,sit
67677, -0.031982, 0.242554, -0.968506, 0.427246, -0.122070, -0.183106,sit
67697, -0.032837, 0.242676, -0.968384, 0.305176, -0.122070, -0.183106,sit
67717, -0.031860, 0.242554, -0.968750, 0.366211, -0.122070, -0.183106,sit
67737, -0.031494, 0.242432, -0.968384, 0.366211, -0.122070, -0.183106,sit
67757, -0.032715, 0.242554, -0.968262, 0.366211, -0.122070, -0.183106,sit
67777, -0.031982, 0.242432, -0.968018, 0.366211, -0.122070, -0.244141,sit
67797, -0.031616, 0.242798, -0.968262, 0.366211, -0.122070, -0.183106,sit
67817, -0.032837, 0.241943, -0.968872, 0.366211, -0.122070, -0.183106,sit
67837, -0.031738, 0.242432, -0.967163, 0.366211, -0.122070, -0.183106,sit
67857, -0.031738, 0.242798, -0.968750, 0.305176, -0.122070, -0.183106,sit
67877, -0.032837, 0.241943, -0.968628, 0.366211, -0.122070, -0.244141,sit
67897, -0.032593, 0.242432, -0.967773, 0.366211, -0.122070, -0.244141,sit
67917, -0.031494, 0.242432, -0.968994, 0.366211, -0.122070, -0.183106,sit
67937, -0.034302, 0.242676, -0.967896, 0.366211, -0.122070, -0.183106,sit
67957, -0.031982, 0.242920, -0.967896, 0.366211, -0.122070, -0.183106,sit
67977, -0.032349, 0.242065, -0.967407, 0.366211, -0.122070, -0.183106,sit
67997, -0.032715, 0.242065, -0.967896, 0.366211, -0.122070, -0.183106,sit
68017, -0.032104, 0.242554, -0.968262, 0.366211, -0.122070, -0.183106,sit
68037, -0.033691, 0.242310, -0.969238, 0.366211, -0.122070, -0.183106,sit
68057, -0.033325, 0.242188, -0.967651, 0.366211, -0.122070, -0.244141,sit
68077, -0.031738, 0.241943, -0.968262, 0.366211, -0.122070, -0.183106,sit
68097, -0.032593, 0.242432, -0.968262, 0.366211, -0.122070, -0.183106,sit
68117, -0.031738, 0.242310, -0.968262, 0.366211, -0.122070, -0.183106,sit
68137, -0.032837, 0.242798, -0.967773, 0.366211, -0.122070, -0.183106,sit
68157, -0.032959, 0.242554, -0.968384, 0.366211, -0.122070, -0.183106,sit
68177, -0.031860, 0.242188, -0.967896, 0.366211, -0.122070, -0.183106,sit
68197, -0.032471, 0.241699, -0.968018, 0.305176, -0.122070, -0.183106,sit
68217, -0.032593, 0.242676, -0.968628, 0.366211, -0.122070, -0.183106,sit
68237, -0.032471, 0.241821, -0.967896, 0.366211, -0.122070, -0.183106,sit
68257, -0.032349, 0.241699, -0.968628, 0.366211, -0.183106, -0.183106,sit
68277, -0.032471, 0.242798, -0.968506, 0.366211, -0.122070, -0.183106,sit
68297, -0.032471, 0.242188, -0.967896, 0.366211, -0.122070, -0.183106,sit
68317, -0.031738, 0.242432, -0.968384, 0.366211, -0.122070, -0.183106,sit
68337, -0.033325, 0.243042, -0.968628, 0.366211, -0.122070, -0.183106,sit
68357, -0.032104, 0.242920, -0.967896, 0.366211, -0.122070, -0.183106,sit
68377, -0.032349, 0.242676, -0.968384, 0.366211, -0.122070, -0.183106,sit
68397, -0.032593, 0.242554, -0.968994, 0.366211, -0.122070, -0.183106,sit
68417, -0.032593, 0.243408, -0.967651, 0.366211, -0.122070, -0.183106,sit
68437, -0.032715, 0.242432, -0.968384, 0.427246, -0.122070, -0.183106,sit
68457, -0.033447, 0.242554, -0.968262, 0.366211, -0.122070, -0.183106,sit
68477, -0.032593, 0.242920, -0.968384, 0.366211, -0.122070, -0.183106,sit
68497, -0.032471, 0.242310, -0.968384, 0.366211, -0.183106, -0.183106,sit
68517, -0.033203, 0.242676, -0.968262, 0.366211, -0.122070, -0.183106,sit
68537, -0.031128, 0.242310, -0.968262, 0.366211, -0.122070, -0.244141,sit
68557, -0.033325, 0.242676, -0.968506, 0.305176, -0.183106, -0.183106,sit
68577, -0.032471, 0.242310, -0.967896, 0.366211, -0.183106, -0.183106,sit
68597, -0.032227, 0.242310, -0.967773, 0.366211, -0.122070, -0.183106,sit
68617, -0.031738, 0.242554, -0.968750, 0.366211, -0.122070, -0.183106,sit
68637, -0.033569, 0.242310, -0.968140, 0.305176, -0.122070, -0.183106,sit
68657, -0.031860, 0.242554, -0.968018, 0.366211, -0.183106, -0.183106,sit
68677, -0.032715, 0.243286, -0.968506, 0.366211, -0.122070, -0.183106,sit
68697, -0.031738, 0.242065, -0.968384, 0.366211, -0.183106, -0.183106,sit
68717, -0.031860, 0.242432, -0.968262, 0.366211, -0.122070, -0.183106,sit
68737, -0.032959, 0.242798, -0.968750, 0.366211, -0.122070, -0.183106,sit
68757, -0.032837, 0.242188, -0.967773, 0.366211, -0.122070, -0.183106,sit
68777, -0.032349, 0.242554, -0.968018, 0.366211, -0.122070, -0.183106,sit
68797, -0.033569, 0.242554, -0.967651, 0.366211, -0.122070, -0.183106,sit
68817, -0.030884, 0.242432, -0.968018, 0.366211, -0.183106, -0.244141,sit
68837, -0.033081, 0.242188, -0.968872, 0.366211, -0.122070, -0.183106,sit
68857, -0.033081, 0.242554, -0.968140, 0.366211, -0.122070, -0.183106,sit
68877, -0.032104, 0.242676, -0.968262, 0.427246, -0.122070, -0.183106,sit
68897, -0.033081, 0.242798, -0.968140, 0.366211, -0.122070, -0.183106,sit
68917, -0.032104, 0.241821, -0.968628, 0.305176, -0.122070, -0.244141,sit
68937, -0.031982, 0.242432, -0.967651, 0.366211, -0.183106, -0.183106,sit
68957, -0.032471, 0.242188, -0.968506, 0.366211, -0.122070, -0.183106,sit
68977, -0.032104, 0.243286, -0.969116, 0.366211, -0.122070, -0.183106,sit
68997, -0.033081, 0.242676, -0.968872, 0.366211, -0.122070, -0.183106,sit
69017, -0.032104, 0.242920, -0.968262, 0.366211, -0.122070, -0.183106,sit
69037, -0.032349, 0.241577, -0.968506, 0.366211, -0.122070, -0.183106,sit
69057, -0.031982, 0.242065, -0.968872, 0.366211, -0.122070, -0.183106,sit
69077, -0.032715, 0.242310, -0.968018, 0.305176, -0.122070, -0.183106,sit
69097, -0.032715, 0.243042, -0.968628, 0.366211, -0.122070, -0.183106,sit
69117, -0.031982, 0.242554, -0.968384, 0.305176, -0.122070, -0.183106,sit
69137, -0.032227, 0.242798, -0.968872, 0.366211, -0.122070, -0.183106,sit
69157, -0.032837, 0.242310, -0.968384, 0.366211, -0.122070, -0.183106,sit
69177, -0.031738, 0.242798, -0.968018, 0.366211, -0.122070, -0.183106,sit
69197, -0.031860, 0.242432, -0.968994, 0.366211, -0.122070, -0.183106,sit
69217, -0.032959, 0.242554, -0.968018, 0.366211, -0.122070, -0.183106,sit
69237, -0.032471, 0.242432, -0.967651, 0.305176, -0.122070, -0.183106,sit
69257, -0.032227, 0.242188, -0.968506, 0.366211, -0.122070, -0.244141,sit
69277, -0.032959, 0.242554, -0.968750, 0.366211, -0.122070, -0.183106,sit
69297, -0.032227, 0.242065, -0.968384, 0.366211, -0.122070, -0.183106,sit
69317, -0.033813, 0.243042, -0.968750, 0.305176, -0.122070, -0.244141,sit
69337, -0.000732, 0.242065, -0.968628, 0.366211, -0.183106, -0.244141,sit
69357, -0.032227, 0.242798, -0.968750, 0.366211, -0.122070, -0.183106,sit
69377, -0.032837, 0.242432, -0.968506, 0.366211, -0.122070, -0.244141,sit
69397, -0.032593, 0.242065, -0.969604, 0.366211, -0.183106, -0.183106,sit
69417, -0.031982, 0.242432, -0.969116, 0.366211, -0.183106, -0.183106,sit
69437, -0.032715, 0.242065, -0.968628, 0.366211, -0.122070, -0.244141,sit
69457, -0.031372, 0.242310, -0.968872, 0.366211, -0.122070, -0.244141,sit
69477, -0.032837, 0.242798, -0.968750, 0.366211, -0.122070, -0.183106,sit
69497, -0.032227, 0.243164, -0.969238, 0.366211, -0.122070, -0.183106,sit
69517, -0.032959, 0.241821, -0.968506, 0.366211, -0.122070, -0.183106,sit
69537, -0.031982, 0.242554, -0.968506, 0.366211, -0.122070, -0.183106,sit
69557, -0.032471, 0.242676, -0.968384, 0.366211, -0.122070, -0.183106,sit
69577, -0.032471, 0.241821, -0.969238, 0.366211, -0.183106, -0.183106,sit
69597, -0.033081, 0.241821, -0.968872, 0.366211, -0.183106, -0.183106,sit
69617, -0.032837, 0.242432, -0.968628, 0.366211, -0.122070, -0.183106,sit
69637, -0.031616, 0.241089, -0.969116, 0.366211, -0.122070, -0.183106,sit
69657, -0.033081, 0.242676, -0.968872, 0.366211, -0.122070, -0.183106,sit
69677, -0.031982, 0.242554, -0.968262, 0.366211, -0.122070, -0.244141,sit
69697, -0.032715, 0.242310, -0.968628, 0.305176, -0.122070, -0.183106,sit
69717, -0.032104, 0.242065, -0.968384, 0.366211, -0.122070, -0.183106,sit
69737, -0.031860, 0.242676, -0.968262, 0.366211, -0.122070, -0.183106,sit
69757, -0.032471, 0.241943, -0.968872, 0.366211, -0.183106, -0.183106,sit
69777, -0.033203, 0.242432, -0.968384, 0.366211, -0.122070, -0.244141,sit
69797, -0.031738, 0.242676, -0.968750, 0.366211, -0.183106, -0.183106,sit
69817, -0.032837, 0.242432, -0.968750, 0.366211, -0.122070, -0.183106,sit
69837, -0.032104, 0.242310, -0.968994, 0.366211, -0.122070, -0.183106,sit
69857, -0.032959, 0.242065, -0.968872, 0.366211, -0.122070, -0.183106,sit
69877, -0.033447, 0.242920, -0.968872, 0.366211, -0.122070, -0.183106,sit
69897, -0.032471, 0.243042, -0.968018, 0.366211, -0.122070, -0.183106,sit
69917, -0.032104, 0.242310, -0.968262, 0.366211, -0.122070, -0.183106,sit
69937, -0.032715, 0.242432, -0.968506, 0.366211, -0.122070, -0.183106,sit
69957, -0.031738, 0.241577, -0.969116, 0.366211, -0.122070, -0.183106,sit
69977, -0.032227, 0.241821, -0.968994, 0.366211, -0.122070, -0.183106,sit
69997, -0.032471, 0.242310, -0.968384, 0.305176, -0.183106, -0.183106,sit
70017, -0.031250, 0.242188, -0.968750, 0.366211, -0.061035, -0.183106,sit
70037, -0.032715, 0.242065, -0.968262, 0.305176, -0.122070, -0.183106,sit
70057, -0.032837, 0.242920, -0.968750, 0.366211, -0.122070, -0.183106,sit
70077, -0.031860, 0.242310, -0.968994, 0.366211, -0.122070, -0.183106,sit
70097, -0.032715, 0.242310, -0.969116, 0.366211, -0.122070, -0.183106,sit
70117, -0.033569, 0.242310, -0.968018, 0.305176, -0.122070, -0.183106,sit
70137, -0.032104, 0.242310, -0.968750, 0.305176, -0.061035, -0.183106,sit
70157, -0.032227, 0.241577, -0.969971, 0.366211, -0.183106, -0.244141,sit
70177, -0.031982, 0.242432, -0.968750, 0.366211, -0.122070, -0.183106,sit
70197, -0.031982, 0.242554, -0.968628, 0.366211, -0.122070, -0.183106,sit
70217, -0.032471, 0.241699, -0.968994, 0.366211, -0.122070, -0.183106,sit
70237, -0.032227, 0.242432, -0.968262, 0.305176, -0.122070, -0.244141,sit
70257, -0.031616, 0.241699, -0.968384, 0.366211, -0.122070, -0.244141,sit
70277, -0.032349, 0.241699, -0.969116, 0.366211, -0.061035, -0.183106,sit
70297, -0.031616, 0.242676, -0.968018, 0.366211, -0.122070, -0.183106,sit
70317, -0.030762, 0.243042, -0.969360, 0.366211, -0.122070, -0.183106,sit
70337, -0.032227, 0.241821, -0.968628, 0.366211, -0.122070, -0.183106,sit
70357, -0.032104, 0.242432, -0.968628, 0.366211, -0.122070, -0.183106,sit
70377, -0.032227, 0.242554, -0.968994, 0.366211, -0.122070, -0.183106,sit
70397, -0.033325, 0.242554, -0.968384, 0.366211, -0.122070, -0.183106,sit
70417, -0.030273, 0.242065, -0.968384, 0.366211, -0.122070, -0.244141,sit
70437, -0.032471, 0.242310, -0.969116, 0.366211, -0.122070, -0.183106,sit
70457, -0.033081, 0.242065, -0.968384, 0.366211, -0.122070, -0.183106,sit
70477, -0.031128, 0.243042, -0.967896, 0.366211, -0.122070, -0.183106,sit
70497, -0.031738, 0.241821, -0.968872, 0.366211, -0.122070, -0.183106,sit
70517, -0.032471, 0.243042, -0.968750, 0.366211, -0.122070, -0.244141,sit
70537, -0.031860, 0.242310, -0.968628, 0.366211, -0.122070, -0.183106,sit
70557, -0.031982, 0.241699, -0.968994, 0.366211, -0.122070, -0.183106,sit
70577, -0.032593, 0.242676, -0.968384, 0.305176, -0.122070, -0.244141,sit
70597, -0.031616, 0.243042, -0.968506, 0.366211, -0.122070, -0.183106,sit
70617, -0.031860, 0.242554, -0.968628, 0.305176, -0.122070, -0.183106,sit
70637, -0.033203, 0.242432, -0.968262, 0.366211, -0.122070, -0.183106,sit
70657, -0.031372, 0.241821, -0.968018, 0.366211, -0.122070, -0.183106,sit
70677, -0.032471, 0.242310, -0.968994, 0.366211, -0.061035, -0.183106,sit
70697, -0.031250, 0.242432, -0.968506, 0.366211, -0.183106, -0.183106,sit
70717, -0.031860, 0.241943, -0.968140, 0.366211, -0.122070, -0.244141,sit
70737, -0.032227, 0.242432, -0.968628, 0.366211, -0.122070, -0.183106,sit
70757, -0.031860, 0.241577, -0.968750, 0.366211, -0.122070, -0.183106,sit
70777, -0.032227, 0.242188, -0.968384, 0.366211, -0.122070, -0.183106,sit
70797, -0.032349, 0.242554, -0.968750, 0.366211, -0.122070, -0.183106,sit
70817, -0.032104, 0.243652, -0.968262, 0.305176, -0.061035, -0.183106,sit
70837, -0.032471, 0.242798, -0.968262, 0.366211, -0.183106, -0.183106,sit
70857, -0.032471, 0.241699, -0.968384, 0.366211, -0.122070, -0.183106,sit
70877, -0.032593, 0.243042, -0.968750, 0.366211, -0.122070, -0.183106,sit
70897, -0.031982, 0.241943, -0.968994, 0.366211, -0.122070, -0.183106,sit
70917, -0.032471, 0.242676, -0.968872, 0.305176, -0.122070, -0.183106,sit
70937, -0.032227, 0.242188, -0.968750, 0.366211, -0.122070, -0.183106,sit
70957, -0.032227, 0.242676, -0.968994, 0.305176, -0.122070, -0.183106,sit
70977, -0.032837, 0.242920, -0.968872, 0.366211, -0.122070, -0.183106,sit
70997, -0.031982, 0.242798, -0.968262, 0.366211, -0.183106, -0.183106,sit
71017, -0.033203, 0.243042, -0.968750, 0.366211, -0.122070, -0.244141,sit
71037, -0.032715, 0.241943, -0.968506, 0.305176, -0.183106, -0.183106,sit
71057, -0.031494, 0.242798, -0.968262, 0.427246, -0.122070, -0.183106,sit
71077, -0.032104, 0.242798, -0.968628, 0.366211, -0.122070, -0.183106,sit
71097, -0.032349, 0.242432, -0.967407, 0.366211, -0.122070, -0.183106,sit
71117, -0.030884, 0.242676, -0.968872, 0.366211, -0.122070, -0.183106,sit
71137, -0.032227, 0.243164, -0.968384, 0.366211, -0.122070, -0.244141,sit
71157, -0.032349, 0.243042, -0.968628, 0.366211, -0.122070, -0.183106,sit
71177, -0.031982, 0.243042, -0.968262, 0.366211, -0.122070, -0.183106,sit
71197, -0.032715, 0.243042, -0.968872, 0.305176, -0.122070, -0.183106,sit
71217, -0.031616, 0.242188, -0.967896, 0.366211, -0.122070, -0.183106,sit
71237, -0.032593, 0.242798, -0.968872, 0.366211, -0.122070, -0.183106,sit
71257, -0.032837, 0.242554, -0.969727, 0.366211, -0.122070, -0.244141,sit
71277, -0.032227, 0.242554, -0.967773, 0.366211, -0.122070, -0.183106,sit
71297, -0.032471, 0.241699, -0.968384, 0.366211, -0.122070, -0.183106,sit
71317, -0.033081, 0.243164, -0.969360, 0.366211, -0.122070, -0.183106,sit
71337, -0.031860, 0.243408, -0.968628, 0.366211, -0.183106, -0.183106,sit
71357, -0.032593, 0.242188, -0.968872, 0.305176, -0.122070, -0.183106,sit
71377, -0.032471, 0.242188, -0.968628, 0.366211, -0.122070, -0.183106,sit
71397, -0.032104, 0.242920, -0.968628, 0.366211, -0.122070, -0.244141,sit
71417, -0.031616, 0.242554, -0.968506, 0.366211, -0.122070, -0.183106,sit
71437, -0.032715, 0.242798, -0.968994, 0.366211, -0.122070, -0.183106,sit
71457, -0.032104, 0.242432, -0.968384, 0.366211, -0.122070, -0.183106,sit
71477, -0.032715, 0.242676, -0.969604, 0.366211, -0.122070, -0.183106,sit
71497, -0.033569, 0.243164, -0.968140, 0.366211, -0.122070, -0.122070,sit
71517, -0.031250, 0.242554, -0.968384, 0.366211, -0.122070, -0.183106,sit
71537, -0.033447, 0.241333, -0.968994, 0.366211, -0.122070, -0.183106,sit
71557, -0.032349, 0.242065, -0.968872, 0.305176, -0.122070, -0.244141,sit
71577, -0.031494, 0.241699, -0.967773, 0.366211, -0.122070, -0.183106,sit
71597, -0.033081, 0.242554, -0.969482, 0.305176, -0.122070, -0.183106,sit
71617, -0.032837, 0.242188, -0.969116, 0.366211, -0.122070, -0.183106,sit
71637, -0.032104, 0.242065, -0.968018, 0.366211, -0.122070, -0.183106,sit
71657, -0.032349, 0.242676, -0.968750, 0.366211, -0.122070, -0.183106,sit
71677, -0.033081, 0.242676, -0.969238, 0.366211, -0.061035, -0.183106,sit
71697, -0.031128, 0.243042, -0.968384, 0.366211, -0.122070, -0.183106,sit
71717, -0.032715, 0.242065, -0.968872, 0.305176, -0.122070, -0.183106,sit
71737, -0.032227, 0.241943, -0.968628, 0.366211, -0.122070, -0.244141,sit
71757, -0.031128, 0.242310, -0.968506, 0.366211, -0.122070, -0.183106,sit
71777, -0.032837, 0.242554, -0.968872, 0.366211, -0.122070, -0.244141,sit
71797, -0.032471, 0.241333, -0.968018, 0.366211, -0.122070, -0.183106,sit
71817, -0.031860, 0.242798, -0.968262, 0.366211, -0.122070, -0.183106,sit
71837, -0.032593, 0.241821, -0.969360, 0.366211, -0.122070, -0.183106,sit
71857, -0.032837, 0.242554, -0.969360, 0.366211, -0.122070, -0.183106,sit
71877, -0.031860, 0.242432, -0.968994, 0.366211, -0.122070, -0.183106,sit
71897, -0.032471, 0.242065, -0.968872, 0.366211, -0.122070, -0.183106,sit
71917, -0.030884, 0.242432, -0.968750, 0.366211, -0.183106, -0.183106,sit
71937, -0.031860, 0.242065, -0.968140, 0.366211, -0.122070, -0.183106,sit
71957, -0.032837, 0.242798, -0.969116, 0.366211, -0.122070, -0.183106,sit
71977, -0.031128, 0.243286, -0.967773, 0.366211, -0.122070, -0.183106,sit
71997, -0.032349, 0.242065, -0.968628, 0.305176, -0.122070, -0.183106,sit
72017, -0.032959, 0.242065, -0.969116, 0.366211, -0.122070, -0.183106,sit
72037, -0.031250, 0.242188, -0.968384, 0.366211, -0.122070, -0.183106,sit
72057, -0.032837, 0.242554, -0.969116, 0.366211, -0.122070, -0.183106,sit
72077, -0.032227, 0.243408, -0.968872, 0.366211, -0.122070, -0.183106,sit
72097, -0.032104, 0.243164, -0.968384, 0.305176, -0.122070, -0.183106,sit
72117, -0.032837, 0.242798, -0.968262, 0.366211, -0.122070, -0.183106,sit
72137, -0.031982, 0.241699, -0.968506, 0.366211, -0.122070, -0.183106,sit
72157, -0.032104, 0.242188, -0.969238, 0.366211, -0.122070, -0.183106,sit
72177, -0.032471, 0.242188, -0.968750, 0.366211, -0.122070, -0.183106,sit
72197, -0.032349, 0.242798, -0.968628, 0.366211, -0.122070, -0.183106,sit
72217, -0.032593, 0.242798, -0.968384, 0.366211, -0.122070, -0.183106,sit
72237, -0.032837, 0.242310, -0.968750, 0.366211, -0.122070, -0.183106,sit
72257, -0.031982, 0.242432, -0.968872, 0.366211, -0.122070, -0.183106,sit
72277, -0.031494, 0.241943, -0.968994, 0.366211, -0.122070, -0.183106,sit
72297, -0.032227, 0.242554, -0.968628, 0.305176, -0.122070, -0.183106,sit
72317, -0.032104, 0.242310, -0.968628, 0.366211, -0.122070, -0.244141,sit
72337, -0.032837, 0.241699, -0.968018, 0.305176, -0.122070, -0.183106,sit
72357, -0.032593, 0.242920, -0.969360, 0.366211, -0.122070, -0.183106,sit
72377, -0.032104, 0.241699, -0.968872, 0.366211, -0.122070, -0.244141,sit
72397, -0.032959, 0.242188, -0.969116, 0.366211, -0.122070, -0.183106,sit
72417, -0.032715, 0.243164, -0.968506, 0.366211, -0.122070, -0.183106,sit
72437, -0.032593, 0.242065, -0.968750, 0.366211, -0.122070, -0.183106,sit
72457, -0.032959, 0.241821, -0.968628, 0.366211, -0.122070, -0.183106,sit
72477, -0.032959, 0.242676, -0.968628, 0.305176, -0.122070, -0.183106,sit
72497, -0.031860, 0.242554, -0.968872, 0.427246, -0.122070, -0.183106,sit
72517, -0.032471, 0.242310, -0.968628, 0.366211, -0.122070, -0.244141,sit
72537, -0.032349, 0.242310, -0.968872, 0.366211, -0.122070, -0.183106,sit
72557, -0.032715, 0.242432, -0.968994, 0.305176, -0.122070, -0.183106,sit
72577, -0.032959, 0.242310, -0.969116, 0.366211, -0.122070, -0.244141,sit
72597, -0.032349, 0.242310, -0.968994, 0.366211, -0.122070, -0.183106,sit
72617, -0.031738, 0.242920, -0.968994, 0.366211, -0.122070, -0.183106,sit
72637, -0.033081, 0.242188, -0.968262, 0.366211, -0.122070, -0.183106,sit
72657, -0.031860, 0.241821, -0.969238, 0.305176, -0.122070, -0.183106,sit
72677, -0.032227, 0.243042, -0.968262, 0.366211, -0.122070, -0.183106,sit
72697, -0.032715, 0.242065, -0.968384, 0.366211, -0.122070, -0.183106,sit
72717, -0.032104, 0.242065, -0.969116, 0.366211, -0.122070, -0.183106,sit
72737, -0.032837, 0.242065, -0.968506, 0.427246, -0.122070, -0.244141,sit
72757, -0.032227, 0.242798, -0.968140, 0.366211, -0.122070, -0.244141,sit
72777, -0.032593, 0.242432, -0.969482, 0.366211, -0.122070, -0.183106,sit
72797, -0.032104, 0.242676, -0.969116, 0.366211, -0.122070, -0.244141,sit
72817, -0.032349, 0.243408, -0.968750, 0.305176, -0.122070, -0.183106,sit
72837, -0.031372, 0.242188, -0.968872, 0.366211, -0.122070, -0.183106,sit
72857, -0.032104, 0.242798, -0.968384, 0.366211, -0.122070, -0.183106,sit
72877, -0.032349, 0.242310, -0.968994, 0.366211, -0.122070, -0.183106,sit
72897, -0.032227, 0.242065, -0.968262, 0.366211, -0.122070, -0.183106,sit
72917, -0.033203, 0.242065, -0.969238, 0.366211, -0.122070, -0.183106,sit
72937, -0.032104, 0.242188, -0.968994, 0.366211, -0.122070, -0.183106,sit
72957, -0.032349, 0.242432, -0.968750, 0.366211, -0.122070, -0.183106,sit
72977, -0.032837, 0.243164, -0.968384, 0.366211, -0.122070, -0.183106,sit
72997, -0.033203, 0.242798, -0.968750, 0.366211, -0.122070, -0.244141,sit
73017, -0.031738, 0.241943, -0.968506, 0.366211, -0.122070, -0.244141,sit
73037, -0.033081, 0.242798, -0.969116, 0.366211, -0.122070, -0.183106,sit
73057, -0.031250, 0.242432, -0.968872, 0.366211, -0.122070, -0.183106,sit
73077, -0.031982, 0.241699, -0.968872, 0.366211, -0.122070, -0.183106,sit
73097, -0.032104, 0.242188, -0.968628, 0.366211, -0.183106, -0.183106,sit
73117, -0.031738, 0.243408, -0.968628, 0.366211, -0.122070, -0.183106,sit
73137, -0.031860, 0.241943, -0.969482, 0.366211, -0.122070, -0.183106,sit
73157, -0.032959, 0.242188, -0.968262, 0.366211, -0.122070, -0.183106,sit
73177, -0.030884, 0.242676, -0.968628, 0.366211, -0.122070, -0.183106,sit
73197, -0.032104, 0.242065, -0.968750, 0.366211, -0.122070, -0.244141,sit
73217, -0.032349, 0.242310, -0.968506, 0.366211, -0.122070, -0.183106,sit
73237, -0.032227, 0.242065, -0.969604, 0.366211, -0.122070, -0.183106,sit
73257, -0.032104, 0.242432, -0.968994, 0.366211, -0.183106, -0.183106,sit
73277, -0.031860, 0.241821, -0.968262, 0.366211, -0.122070, -0.183106,sit
73297, -0.032349, 0.242432, -0.968750, 0.366211, -0.122070, -0.244141,sit
73317, -0.031982, 0.242432, -0.970337, 0.366211, -0.122070, -0.183106,sit
73337, -0.031982, 0.242065, -0.967529, 0.366211, -0.122070, -0.183106,sit
73357, -0.031372, 0.242432, -0.968628, 0.366211, -0.122070, -0.183106,sit
73377, -0.032471, 0.241943, -0.968994, 0.366211, -0.122070, -0.244141,sit
73397, -0.032349, 0.242432, -0.967896, 0.305176, -0.122070, -0.183106,sit
73417, -0.031982, 0.242920, -0.968506, 0.366211, -0.122070, -0.244141,sit
73437, -0.032471, 0.241943, -0.968750, 0.366211, -0.122070, -0.244141,sit
73457, -0.031616, 0.242310, -0.969116, 0.366211, -0.122070, -0.244141,sit
73477, -0.031860, 0.242310, -0.968872, 0.366211, -0.122070, -0.183106,sit
73497, -0.033203, 0.242432, -0.969360, 0.366211, -0.061035, -0.244141,sit
73517, -0.032715, 0.242432, -0.968140, 0.366211, -0.122070, -0.183106,sit
73537, -0.032471, 0.242065, -0.969604, 0.305176, -0.122070, -0.183106,sit
73557, -0.032837, 0.242188, -0.968506, 0.366211, -0.122070, -0.183106,sit
73577, -0.031128, 0.242798, -0.969482, 0.366211, -0.122070, -0.183106,sit
73597, -0.032715, 0.242065, -0.969727, 0.366211, -0.122070, -0.183106,sit
73617, -0.032715, 0.242554, -0.968872, 0.305176, -0.122070, -0.183106,sit
73637, -0.031372, 0.242188, -0.968506, 0.305176, -0.061035, -0.183106,sit
73657, -0.032349, 0.241943, -0.968872, 0.366211, -0.122070, -0.183106,sit
73677, -0.033569, 0.242065, -0.968750, 0.305176, -0.122070, -0.183106,sit
73697, -0.031494, 0.242554, -0.968994, 0.366211, -0.061035, -0.183106,sit
73717, -0.033081, 0.242432, -0.969360, 0.366211, -0.061035, -0.183106,sit
73737, -0.032227, 0.243164, -0.968384, 0.366211, -0.122070, -0.244141,sit
73757, -0.031250, 0.241577, -0.968262, 0.366211, -0.122070, -0.183106,sit
73777, -0.032593, 0.242920, -0.969238, 0.366211, -0.122070, -0.183106,sit
73797, -0.032837, 0.242676, -0.968750, 0.366211, -0.122070, -0.183106,sit
73817, -0.031372, 0.242065, -0.968262, 0.427246, -0.122070, -0.183106,sit
73837, -0.032593, 0.242798, -0.969238, 0.305176, -0.122070, -0.183106,sit
73857, -0.032959, 0.242920, -0.969482, 0.366211, -0.122070, -0.183106,sit
73877, -0.031860, 0.242432, -0.968750, 0.366211, -0.122070, -0.183106,sit
73897, -0.032471, 0.242188, -0.969849, 0.305176, -0.122070, -0.183106,sit
73917, -0.031006, 0.242310, -0.967896, 0.366211, -0.122070, -0.183106,sit
73937, -0.032104, 0.242432, -0.968994, 0.366211, -0.122070, -0.183106,sit
73957, -0.033081, 0.243164, -0.968872, 0.366211, -0.122070, -0.244141,sit
73977, -0.032349, 0.242432, -0.968872, 0.366211, -0.122070, -0.183106,sit
73997, -0.032837, 0.242310, -0.969116, 0.366211, -0.122070, -0.183106,sit
74017, -0.032837, 0.242065, -0.968872, 0.366211, -0.122070, -0.183106,sit
74037, -0.031860, 0.242065, -0.969238, 0.366211, -0.122070, -0.183106,sit
74057, -0.032104, 0.242188, -0.968872, 0.366211, -0.061035, -0.183106,sit
74077, -0.032104, 0.241699, -0.968872, 0.366211, -0.122070, -0.244141,sit
74097, -0.031494, 0.241821, -0.968384, 0.366211, -0.122070, -0.244141,sit
74117, -0.032349, 0.242920, -0.969116, 0.427246, -0.122070, -0.183106,sit
74137, -0.032837, 0.242676, -0.968140, 0.366211, -0.122070, -0.183106,sit
74157, -0.032593, 0.242554, -0.968872, 0.305176, -0.122070, -0.244141,sit
74177, -0.031982, 0.242310, -0.968750, 0.366211, -0.122070, -0.183106,sit
74197, -0.032837, 0.242188, -0.969116, 0.366211, -0.122070, -0.244141,sit
74217, -0.031738, 0.241943, -0.967407, 0.366211, -0.122070, -0.183106,sit
74237, -0.032959, 0.242432, -0.968872, 0.305176, -0.122070, -0.183106,sit
74257, -0.032349, 0.242920, -0.968506, 0.366211, -0.122070, -0.183106,sit
74277, -0.031738, 0.241455, -0.968628, 0.366211, -0.122070, -0.183106,sit
74297, -0.033081, 0.242432, -0.968994, 0.366211, -0.183106, -0.244141,sit
74317, -0.032104, 0.242676, -0.968506, 0.366211, -0.122070, -0.183106,sit
74337, -0.031738, 0.242798, -0.967773, 0.366211, -0.122070, -0.244141,sit
74357, -0.032349, 0.241821, -0.969116, 0.366211, -0.122070, -0.183106,sit
74377, -0.031616, 0.242676, -0.968750, 0.366211, -0.122070, -0.183106,sit
74397, -0.032349, 0.242188, -0.968384, 0.366211, -0.122070, -0.183106,sit
74417, -0.032349, 0.241821, -0.969360, 0.366211, -0.122070, -0.183106,sit
74437, -0.032471, 0.242676, -0.968262, 0.366211, -0.122070, -0.183106,sit
74457, -0.032593, 0.242065, -0.968628, 0.366211, -0.122070, -0.183106,sit
74477, -0.032349, 0.242065, -0.969238, 0.366211, -0.122070, -0.183106,sit
74497, -0.031738, 0.242920, -0.968506, 0.366211, -0.122070, -0.183106,sit
74517, -0.032715, 0.242432, -0.968750, 0.366211, -0.122070, -0.244141,sit
74537, -0.033081, 0.242432, -0.968750, 0.366211, -0.122070, -0.183106,sit
74557, -0.032104, 0.242554, -0.967896, 0.366211, -0.122070, -0.244141,sit
74577, -0.033203, 0.241455, -0.968872, 0.366211, -0.122070, -0.183106,sit
74597, -0.032104, 0.242432, -0.968872, 0.366211, -0.122070, -0.183106,sit
74617, -0.031860, 0.242432, -0.967773, 0.366211, -0.122070, -0.183106,sit
74637, -0.033447, 0.244019, -0.970215, 0.305176, -0.122070, -0.183106,sit
74657, -0.031616, 0.240967, -0.966431, 0.366211, -0.122070, -0.183106,sit
74677, -0.032227, 0.242676, -0.969727, 0.366211, -0.122070, -0.183106,sit
74697, -0.032959, 0.242310, -0.968750, 0.366211, -0.122070, -0.183106,sit
74717, -0.031982, 0.242188, -0.969482, 0.305176, -0.061035, -0.244141,sit
74737, -0.032104, 0.243286, -0.968872, 0.366211, -0.183106, -0.183106,sit
74757, -0.033203, 0.240845, -0.967896, 0.305176, -0.122070, -0.183106,sit
74777, -0.031860, 0.243286, -0.969971, 0.366211, -0.122070, -0.183106,sit
74797, -0.031250, 0.241455, -0.966797, 0.366211, -0.061035, -0.183106,sit
74817, -0.032837, 0.242432, -0.969971, 0.366211, -0.122070, -0.183106,sit
74837, -0.031738, 0.243652, -0.968262, 0.366211, -0.122070, -0.183106,sit
74857, -0.032104, 0.242188, -0.968750, 0.305176, -0.122070, -0.183106,sit
74877, -0.032715, 0.243652, -0.969482, 0.366211, -0.183106, -0.183106,sit
74897, -0.032593, 0.242798, -0.968872, 0.366211, -0.122070, -0.183106,sit
74917, -0.032104, 0.242432, -0.968750, 0.305176, -0.122070, -0.183106,sit
74937, -0.032349, 0.242065, -0.969116, 0.366211, -0.122070, -0.244141,sit
74957, -0.032593, 0.242432, -0.968628, 0.305176, -0.122070, -0.244141,sit
74977, -0.032349, 0.243042, -0.968506, 0.366211, -0.122070, -0.183106,sit
74997, -0.033081, 0.242065, -0.968872, 0.366211, -0.122070, -0.183106,sit
75017, -0.031494, 0.243286, -0.968628, 0.366211, -0.122070, -0.183106,sit
75037, -0.031860, 0.241943, -0.969116, 0.366211, -0.122070, -0.183106,sit
75057, -0.031372, 0.242798, -0.968506, 0.366211, -0.122070, -0.183106,sit
75077, -0.031860, 0.241821, -0.969482, 0.366211, -0.183106, -0.183106,sit
75097, -0.032593, 0.241699, -0.968140, 0.366211, -0.122070, -0.183106,sit
75117, -0.032227, 0.242798, -0.968994, 0.366211, -0.122070, -0.183106,sit
75137, -0.032593, 0.242065, -0.968628, 0.366211, -0.122070, -0.183106,sit
75157, -0.033081, 0.243286, -0.969360, 0.366211, -0.122070, -0.183106,sit
75177, -0.032837, 0.241943, -0.968384, 0.366211, -0.122070, -0.183106,sit
75197, -0.031494, 0.242310, -0.968262, 0.305176, -0.122070, -0.183106,sit
75217, -0.033203, 0.241943, -0.968872, 0.366211, -0.183106, -0.183106,sit
75237, -0.032104, 0.241577, -0.968384, 0.366211, -0.122070, -0.183106,sit
75257, -0.032471, 0.243042, -0.969482, 0.366211, -0.122070, -0.183106,sit
75277, -0.032471, 0.242310, -0.968384, 0.366211, -0.122070, -0.244141,sit
75297, -0.032593, 0.241821, -0.969238, 0.366211, -0.122070, -0.183106,sit
75317, -0.031738, 0.242798, -0.968384, 0.366211, -0.122070, -0.183106,sit
75337, -0.033813, 0.243042, -0.968384, 0.366211, -0.122070, -0.183106,sit
75357, -0.031616, 0.242188, -0.969116, 0.366211, -0.122070, -0.183106,sit
75377, -0.031494, 0.242310, -0.968140, 0.366211, -0.122070, -0.183106,sit
75397, -0.032471, 0.243042, -0.968994, 0.366211, -0.122070, -0.183106,sit
75417, -0.032104, 0.242432, -0.969116, 0.366211, -0.122070, -0.244141,sit
75437, -0.032471, 0.241943, -0.968994, 0.366211, -0.122070, -0.183106,sit
75457, -0.031738, 0.242432, -0.968384, 0.366211, -0.122070, -0.183106,sit
75477, -0.031616, 0.242554, -0.968750, 0.366211, -0.122070, -0.244141,sit
75497, -0.032349, 0.242188, -0.968384, 0.366211, -0.122070, -0.183106,sit
75517, -0.031616, 0.242920, -0.968262, 0.366211, -0.122070, -0.183106,sit
75537, -0.032227, 0.242798, -0.969116, 0.366211, -0.061035, -0.183106,sit
75557, -0.032959, 0.242310, -0.968628, 0.366211, -0.122070, -0.183106,sit
75577, -0.032471, 0.242676, -0.968506, 0.366211, -0.183106, -0.183106,sit
75597, -0.033081, 0.242065, -0.968628, 0.366211, -0.122070, -0.183106,sit
75617, -0.032349, 0.242432, -0.968628, 0.366211, -0.122070, -0.183106,sit
75637, -0.031372, 0.243042, -0.968384, 0.366211, -0.183106, -0.244141,sit
75657, -0.032471, 0.242432, -0.968872, 0.366211, -0.122070, -0.183106,sit
75677, -0.032837, 0.241455, -0.968994, 0.366211, -0.122070, -0.183106,sit
75697, -0.031738, 0.242432, -0.968506, 0.366211, -0.122070, -0.244141,sit
75717, -0.032471, 0.242432, -0.968628, 0.366211, -0.122070, -0.183106,sit
75737, -0.032471, 0.242798, -0.968262, 0.305176, -0.122070, -0.183106,sit
75757, -0.032227, 0.242188, -0.968628, 0.366211, -0.122070, -0.183106,sit
75777, -0.032715, 0.241943, -0.968872, 0.366211, -0.122070, -0.183106,sit
75797, -0.031982, 0.242798, -0.968384, 0.366211, -0.122070, -0.183106,sit
75817, -0.032593, 0.242310, -0.968384, 0.366211, -0.122070, -0.183106,sit
75837, -0.032593, 0.242920, -0.969482, 0.366211, -0.122070, -0.183106,sit
75857, -0.032349, 0.242065, -0.968506, 0.366211, -0.122070, -0.183106,sit
75877, -0.032471, 0.242065, -0.968506, 0.366211, -0.122070, -0.183106,sit
75897, -0.032715, 0.243408, -0.968506, 0.366211, -0.122070, -0.244141,sit
75917, -0.031982, 0.241821, -0.968384, 0.427246, -0.122070, -0.183106,sit
75937, -0.032471, 0.241943, -0.968872, 0.366211, -0.183106, -0.183106,sit
75957, -0.032715, 0.241943, -0.968994, 0.305176, -0.122070, -0.183106,sit
75977, -0.032349, 0.243042, -0.968750, 0.366211, -0.122070, -0.183106,sit
75997, -0.031860, 0.242432, -0.969238, 0.366211, -0.122070, -0.244141,sit
76017, -0.032227, 0.241577, -0.969238, 0.305176, -0.122070, -0.183106,sit
76037, -0.031616, 0.242676, -0.968994, 0.366211, -0.122070, -0.183106,sit
76057, -0.032471, 0.240967, -0.968628, 0.366211, -0.122070, -0.183106,sit
76077, -0.032959, 0.242676, -0.968262, 0.366211, -0.122070, -0.183106,sit
76097, -0.031738, 0.242432, -0.968750, 0.427246, -0.122070, -0.183106,sit
76117, -0.032349, 0.241699, -0.968384, 0.366211, -0.122070, -0.244141,sit
76137, -0.032837, 0.241699, -0.968628, 0.366211, -0.122070, -0.183106,sit
76157, -0.031494, 0.243164, -0.968750, 0.366211, -0.122070, -0.183106,sit
76177, -0.032349, 0.242065, -0.969482, 0.366211, -0.122070, -0.244141,sit
76197, -0.032471, 0.241455, -0.968750, 0.305176, -0.122070, -0.183106,sit
76217, -0.031982, 0.241577, -0.968750, 0.366211, -0.122070, -0.183106,sit
76237, -0.032471, 0.241821, -0.968628, 0.366211, -0.122070, -0.244141,sit
76257, -0.032227, 0.242065, -0.968018, 0.366211, -0.122070, -0.183106,sit
76277, -0.031250, 0.242188, -0.968994, 0.366211, -0.122070, -0.183106,sit
76297, -0.032593, 0.241211, -0.969238, 0.366211, -0.122070, -0.183106,sit
76317, -0.031982, 0.242676, -0.968628, 0.305176, -0.122070, -0.183106,sit
76337, -0.031738, 0.241211, -0.968262, 0.366211, -0.122070, -0.183106,sit
76357, -0.032959, 0.242432, -0.969360, 0.366211, -0.122070, -0.244141,sit
76377, -0.032471, 0.241821, -0.968994, 0.366211, -0.122070, -0.183106,sit
76397, -0.031372, 0.242798, -0.969238, 0.366211, -0.122070, -0.183106,sit
76417, -0.033081, 0.241821, -0.969238, 0.366211, -0.122070, -0.183106,sit
76437, -0.031372, 0.241577, -0.968628, 0.366211, -0.122070, -0.183106,sit
76457, -0.031738, 0.241699, -0.968628, 0.366211, -0.122070, -0.183106,sit
76477, -0.032471, 0.242920, -0.968628, 0.366211, -0.122070, -0.183106,sit
76497, -0.031860, 0.242310, -0.968506, 0.366211, -0.122070, -0.183106,sit
76517, -0.033081, 0.241699, -0.969238, 0.366211, -0.122070, -0.183106,sit
76537, -0.032593, 0.242920, -0.968506, 0.366211, -0.122070, -0.183106,sit
76557, -0.031738, 0.242065, -0.968628, 0.366211, -0.122070, -0.183106,sit
76577, -0.033325, 0.241699, -0.969482, 0.366211, -0.122070, -0.183106,sit
76597, -0.032715, 0.242310, -0.969116, 0.366211, -0.122070, -0.244141,sit
76617, -0.031616, 0.241699, -0.968384, 0.366211, -0.122070, -0.183106,sit
76637, -0.032349, 0.243042, -0.968994, 0.366211, -0.122070, -0.183106,sit
76657, -0.032837, 0.242310, -0.968384, 0.366211, -0.122070, -0.183106,sit
76677, -0.032471, 0.241943, -0.968506, 0.305176, -0.122070, -0.183106,sit
76697, -0.032959, 0.241943, -0.969360, 0.366211, -0.122070, -0.244141,sit
76717, -0.031982, 0.242065, -0.968262, 0.305176, -0.122070, -0.244141,sit
76737, -0.031372, 0.241699, -0.968994, 0.366211, -0.183106, -0.183106,sit
76757, -0.033081, 0.241821, -0.969482, 0.305176, -0.122070, -0.183106,sit
76777, -0.032349, 0.242188, -0.968262, 0.366211, -0.122070, -0.183106,sit
76797, -0.032471, 0.242798, -0.968994, 0.366211, -0.122070, -0.183106,sit
76817, -0.032471, 0.241821, -0.969116, 0.366211, -0.122070, -0.183106,sit
76837, -0.031982, 0.242065, -0.968750, 0.366211, -0.122070, -0.183106,sit
76857, -0.031738, 0.243042, -0.968262, 0.366211, -0.122070, -0.183106,sit
76877, -0.032959, 0.242432, -0.969116, 0.427246, -0.122070, -0.244141,sit
76897, -0.031860, 0.242798, -0.969238, 0.305176, -0.122070, -0.244141,sit
76917, -0.031860, 0.241943, -0.969604, 0.366211, -0.122070, -0.183106,sit
76937, -0.032959, 0.242310, -0.968750, 0.366211, -0.122070, -0.122070,sit
76957, -0.031982, 0.242554, -0.968750, 0.366211, -0.122070, -0.183106,sit
76977, -0.031128, 0.242310, -0.969849, 0.305176, -0.122070, -0.183106,sit
76997, -0.032959, 0.242310, -0.968872, 0.366211, -0.122070, -0.244141,sit
77017, -0.031860, 0.242798, -0.968628, 0.305176, -0.122070, -0.183106,sit
77037, -0.031982, 0.242432, -0.969238, 0.366211, -0.122070, -0.183106,sit
77057, -0.033325, 0.242798, -0.969482, 0.427246, -0.122070, -0.183106,sit
77077, -0.031128, 0.242432, -0.968994, 0.366211, -0.122070, -0.183106,sit
77097, -0.032715, 0.242798, -0.968628, 0.366211, -0.061035, -0.183106,sit
77117, -0.032715, 0.242554, -0.968994, 0.366211, -0.122070, -0.183106,sit
77137, -0.032593, 0.242310, -0.968628, 0.366211, -0.122070, -0.244141,sit
77157, -0.033325, 0.241577, -0.968872, 0.366211, -0.122070, -0.183106,sit
77177, -0.032227, 0.242798, -0.968872, 0.305176, -0.122070, -0.183106,sit
77197, -0.031006, 0.242554, -0.968750, 0.366211, -0.122070, -0.183106,sit
77217, -0.032593, 0.241455, -0.969116, 0.366211, -0.122070, -0.183106,sit
77237, -0.032104, 0.242554, -0.970093, 0.366211, -0.122070, -0.183106,sit
77257, -0.031860, 0.241577, -0.968994, 0.366211, -0.122070, -0.183106,sit
77277, -0.032715, 0.242432, -0.968506, 0.305176, -0.122070, -0.244141,sit
77297, -0.031128, 0.242676, -0.968506, 0.366211, -0.122070, -0.183106,sit
77317, -0.031982, 0.242432, -0.968140, 0.366211, -0.122070, -0.244141,sit
77337, -0.032349, 0.241455, -0.969360, 0.366211, -0.183106, -0.244141,sit
77357, -0.032593, 0.242188, -0.968018, 0.366211, -0.122070, -0.183106,sit
77377, -0.031372, 0.241821, -0.970093, 0.366211, -0.122070, -0.183106,sit
77397, -0.032471, 0.242554, -0.968262, 0.305176, -0.122070, -0.183106,sit
77417, -0.031982, 0.242310, -0.968872, 0.366211, -0.122070, -0.183106,sit
77437, -0.031982, 0.241943, -0.968628, 0.366211, -0.122070, -0.183106,sit
77457, -0.032104, 0.242676, -0.968994, 0.305176, -0.122070, -0.183106,sit
77477, -0.031982, 0.243164, -0.968262, 0.366211, -0.122070, -0.183106,sit
77497, -0.031982, 0.241943, -0.969238, 0.366211, -0.122070, -0.183106,sit
77517, -0.032104, 0.242676, -0.969604, 0.366211, -0.122070, -0.183106,sit
77537, -0.031738, 0.241943, -0.968506, 0.366211, -0.122070, -0.244141,sit
77557, -0.031738, 0.243042, -0.969238, 0.305176, -0.122070, -0.183106,sit
77577, -0.032349, 0.242676, -0.968750, 0.305176, -0.122070, -0.183106,sit
77597, -0.031250, 0.241333, -0.968262, 0.366211, -0.122070, -0.183106,sit
77617, -0.032104, 0.243042, -0.968750, 0.366211, -0.122070, -0.244141,sit
77637, -0.031982, 0.241699, -0.969360, 0.366211, -0.122070, -0.183106,sit
77657, -0.031616, 0.242676, -0.968384, 0.366211, -0.122070, -0.183106,sit
77677, -0.033203, 0.242310, -0.968384, 0.305176, -0.122070, -0.244141,sit
77697, -0.032593, 0.242798, -0.969116, 0.366211, -0.122070, -0.183106,sit
77717, -0.031616, 0.241821, -0.968140, 0.366211, -0.122070, -0.183106,sit
77737, -0.032959, 0.242676, -0.969727, 0.366211, -0.122070, -0.183106,sit
77757, -0.032227, 0.243042, -0.970215, 0.305176, -0.122070, -0.183106,sit
77777, -0.031738, 0.241577, -0.969482, 0.366211, -0.122070, -0.183106,sit
77797, -0.032837, 0.241943, -0.968262, 0.305176, -0.122070, -0.183106,sit
77817, -0.031006, 0.242798, -0.969971, 0.366211, -0.122070, -0.183106,sit
77837, -0.031860, 0.241943, -0.968140, 0.366211, -0.122070, -0.183106,sit
77857, -0.031372, 0.242676, -0.969360, 0.305176, -0.122070, -0.183106,sit
77877, -0.033203, 0.241943, -0.968140, 0.366211, -0.122070, -0.183106,sit
77897, -0.032227, 0.242676, -0.967651, 0.366211, -0.122070, -0.183106,sit
77917, -0.032349, 0.242432, -0.968506, 0.305176, -0.122070, -0.183106,sit
77937, -0.031616, 0.243042, -0.968506, 0.366211, -0.122070, -0.183106,sit
77957, -0.032227, 0.242188, -0.969849, 0.366211, -0.122070, -0.183106,sit
77977, -0.032959, 0.240967, -0.967896, 0.366211, -0.122070, -0.183106,sit
77997, -0.032471, 0.242310, -0.968872, 0.366211, -0.122070, -0.183106,sit
78017, -0.033203, 0.241821, -0.967896, 0.366211, -0.122070, -0.183106,sit
78037, -0.032715, 0.242676, -0.969482, 0.305176, -0.122070, -0.183106,sit
78057, -0.031982, 0.242188, -0.968384, 0.305176, -0.122070, -0.244141,sit
78077, -0.033203, 0.242798, -0.969971, 0.366211, -0.122070, -0.183106,sit
78097, -0.032593, 0.242554, -0.969971, 0.366211, -0.122070, -0.183106,sit
78117, -0.032104, 0.242065, -0.969116, 0.366211, -0.122070, -0.183106,sit
78137, -0.032471, 0.243042, -0.967651, 0.366211, -0.122070, -0.183106,sit
78157, -0.032349, 0.242554, -0.968872, 0.366211, -0.122070, -0.183106,sit
78177, -0.032227, 0.241821, -0.968994, 0.305176, -0.122070, -0.183106,sit
78197, -0.032227, 0.242554, -0.968872, 0.366211, -0.122070, -0.183106,sit
78217, -0.032349, 0.243042, -0.968872, 0.305176, -0.122070, -0.183106,sit
78237, -0.031128, 0.241943, -0.968750, 0.366211, -0.122070, -0.183106,sit
78257, -0.031982, 0.242310, -0.968872, 0.366211, -0.122070, -0.183106,sit
78277, -0.031616, 0.242065, -0.968384, 0.366211, -0.122070, -0.183106,sit
78297, -0.031860, 0.241821, -0.969360, 0.366211, -0.122070, -0.183106,sit
78317, -0.032349, 0.242310, -0.968262, 0.366211, -0.122070, -0.244141,sit
78337, -0.032227, 0.241821, -0.968994, 0.366211, -0.122070, -0.183106,sit
78357, -0.031494, 0.241211, -0.969238, 0.305176, -0.122070, -0.183106,sit
78377, -0.032471, 0.243042, -0.968994, 0.305176, -0.122070, -0.183106,sit
78397, -0.032104, 0.242554, -0.969360, 0.366211, -0.122070, -0.183106,sit
78417, -0.031982, 0.241821, -0.968994, 0.366211, -0.122070, -0.183106,sit
78437, -0.032349, 0.242554, -0.968750, 0.366211, -0.122070, -0.183106,sit
78457, -0.031860, 0.241577, -0.968872, 0.366211, -0.061035, -0.183106,sit
78477, -0.032104, 0.242310, -0.969482, 0.305176, -0.122070, -0.183106,sit
78497, -0.033203, 0.241577, -0.968994, 0.366211, -0.122070, -0.183106,sit
78517, -0.032715, 0.242310, -0.969482, 0.366211, -0.122070, -0.183106,sit
78537, -0.033447, 0.241943, -0.968750, 0.366211, -0.122070, -0.183106,sit
78557, -0.032471, 0.242554, -0.968872, 0.366211, -0.122070, -0.183106,sit
78577, -0.032471, 0.242798, -0.968872, 0.366211, -0.122070, -0.244141,sit
78597, -0.032471, 0.241943, -0.968872, 0.366211, -0.122070, -0.183106,sit
78617, -0.031982, 0.242310, -0.968994, 0.366211, -0.122070, -0.183106,sit
78637, -0.031616, 0.242310, -0.968994, 0.366211, -0.122070, -0.183106,sit
78657, -0.032715, 0.241577, -0.969116, 0.366211, -0.122070, -0.183106,sit
78677, -0.032593, 0.242432, -0.968872, 0.366211, -0.061035, -0.183106,sit
78697, -0.031860, 0.241943, -0.969238, 0.366211, -0.122070, -0.183106,sit
78717, -0.032959, 0.242065, -0.968872, 0.366211, -0.122070, -0.183106,sit
78737, -0.031982, 0.241943, -0.969360, 0.366211, -0.122070, -0.183106,sit
78757, -0.032471, 0.242798, -0.968750, 0.305176, -0.122070, -0.183106,sit
78777, -0.032837, 0.242188, -0.968140, 0.366211, -0.122070, -0.183106,sit
78798, -0.031372, 0.241577, -0.968628, 0.366211, -0.122070, -0.244141,sit
78818, -0.032837, 0.241943, -0.969482, 0.366211, -0.122070, -0.183106,sit
78838, -0.032471, 0.242310, -0.968872, 0.366211, -0.122070, -0.244141,sit
78858, -0.031982, 0.241577, -0.969482, 0.366211, -0.122070, -0.183106,sit
78878, -0.032593, 0.241211, -0.969116, 0.366211, -0.122070, -0.183106,sit
78898, -0.031982, 0.242432, -0.969238, 0.366211, -0.122070, -0.183106,sit
78918, -0.032593, 0.241577, -0.968994, 0.366211, -0.122070, -0.183106,sit
78938, -0.032471, 0.241821, -0.968628, 0.305176, -0.122070, -0.183106,sit
78958, -0.032227, 0.243286, -0.969116, 0.366211, -0.122070, -0.183106,sit
78978, -0.032227, 0.241211, -0.969238, 0.366211, -0.122070, -0.183106,sit
78998, -0.033081, 0.241943, -0.969482, 0.305176, -0.122070, -0.183106,sit
79018, -0.031616, 0.242188, -0.968750, 0.366211, -0.122070, -0.183106,sit
79038, -0.032471, 0.242676, -0.969482, 0.366211, -0.122070, -0.183106,sit
79058, -0.032593, 0.241943, -0.969360, 0.305176, -0.061035, -0.183106,sit
79078, -0.032104, 0.242432, -0.968994, 0.366211, -0.061035, -0.183106,sit
79098, -0.032959, 0.242065, -0.969238, 0.366211, -0.122070, -0.183106,sit
79118, -0.032104, 0.241699, -0.969116, 0.366211, -0.122070, -0.183106,sit
79138, -0.032227, 0.242065, -0.968750, 0.366211, -0.122070, -0.183106,sit
79158, -0.032227, 0.242432, -0.969116, 0.366211, -0.122070, -0.183106,sit
79178, -0.032959, 0.241821, -0.969604, 0.366211, -0.122070, -0.183106,sit
79198, -0.031860, 0.241943, -0.969238, 0.366211, -0.122070, -0.244141,sit
79218, -0.032593, 0.242188, -0.969727, 0.366211, -0.122070, -0.183106,sit
79238, -0.031738, 0.242188, -0.968750, 0.366211, -0.122070, -0.183106,sit
79258, -0.032471, 0.241821, -0.969238, 0.366211, -0.122070, -0.244141,sit
79278, -0.032104, 0.242554, -0.969238, 0.366211, -0.122070, -0.183106,sit
79298, -0.032715, 0.242310, -0.968994, 0.366211, -0.122070, -0.183106,sit
79318, -0.031738, 0.241455, -0.969849, 0.366211, -0.122070, -0.183106,sit
79338, -0.033447, 0.242188, -0.969116, 0.366211, -0.122070, -0.244141,sit
79358, -0.032227, 0.243164, -0.969727, 0.305176, -0.122070, -0.183106,sit
79378, -0.032593, 0.242798, -0.968872, 0.366211, -0.122070, -0.244141,sit
79398, -0.031860, 0.242554, -0.969727, 0.305176, -0.122070, -0.183106,sit
79418, -0.032104, 0.241943, -0.968262, 0.366211, -0.122070, -0.183106,sit
79438, -0.031738, 0.242798, -0.968872, 0.366211, -0.183106, -0.183106,sit
79458, -0.033447, 0.242676, -0.969360, 0.366211, -0.122070, -0.183106,sit
79478, -0.032104, 0.242188, -0.968262, 0.366211, -0.122070, -0.183106,sit
79498, -0.031860, 0.242188, -0.969360, 0.366211, -0.122070, -0.183106,sit
79518, -0.032593, 0.241455, -0.969360, 0.305176, -0.122070, -0.183106,sit
79538, -0.031494, 0.241699, -0.968262, 0.366211, -0.122070, -0.183106,sit
79558, -0.031738, 0.242310, -0.970093, 0.366211, -0.122070, -0.183106,sit
79578, -0.032593, 0.242554, -0.969604, 0.305176, -0.122070, -0.183106,sit
79598, -0.032593, 0.242554, -0.968872, 0.427246, -0.122070, -0.183106,sit
79618, -0.032104, 0.242310, -0.969482, 0.305176, -0.122070, -0.183106,sit
79638, -0.032593, 0.241943, -0.969116, 0.305176, -0.122070, -0.183106,sit
79658, -0.030396, 0.242554, -0.968750, 0.305176, -0.122070, -0.244141,sit
79678, -0.032837, 0.241699, -0.968506, 0.366211, -0.122070, -0.183106,sit
79698, -0.033813, 0.241577, -0.968994, 0.366211, -0.122070, -0.183106,sit
79718, -0.031494, 0.242065, -0.969604, 0.366211, -0.122070, -0.244141,sit
79738, -0.033081, 0.241211, -0.969238, 0.366211, -0.122070, -0.183106,sit
79758, -0.032715, 0.242554, -0.968994, 0.366211, -0.122070, -0.183106,sit
79778, -0.031860, 0.242554, -0.968872, 0.366211, -0.122070, -0.183106,sit
79798, -0.031982, 0.241821, -0.969238, 0.305176, -0.122070, -0.183106,sit
79818, -0.032715, 0.242065, -0.968262, 0.366211, -0.122070, -0.183106,sit
79838, -0.031616, 0.243042, -0.968994, 0.366211, -0.122070, -0.183106,sit
79858, -0.033447, 0.242065, -0.969360, 0.305176, -0.122070, -0.183106,sit
79878, -0.032349, 0.242188, -0.968384, 0.366211, -0.122070, -0.183106,sit
79898, -0.032349, 0.241943, -0.969238, 0.305176, -0.122070, -0.183106,sit
79918, -0.033081, 0.242798, -0.969604, 0.366211, -0.122070, -0.183106,sit
79938, -0.031128, 0.241821, -0.968506, 0.366211, -0.122070, -0.183106,sit
79958, -0.033447, 0.241821, -0.969360, 0.366211, -0.122070, -0.183106,sit
79978, -0.032593, 0.243042, -0.969360, 0.366211, -0.122070, -0.183106,sit
79998, -0.031616, 0.242188, -0.968262, 0.366211, -0.122070, -0.183106,sit
80018, -0.031738, 0.241699, -0.969116, 0.366211, -0.122070, -0.183106,sit
80038, -0.033569, 0.242188, -0.968994, 0.305176, -0.122070, -0.183106,sit
80058, -0.031494, 0.241821, -0.968994, 0.366211, -0.061035, -0.183106,sit
80078, -0.033447, 0.241577, -0.969116, 0.305176, -0.122070, -0.183106,sit
80098, -0.033081, 0.241821, -0.969238, 0.366211, -0.122070, -0.244141,sit
80118, -0.031494, 0.241821, -0.968506, 0.366211, -0.122070, -0.183106,sit
80138, -0.031982, 0.241821, -0.968506, 0.366211, -0.122070, -0.183106,sit
80158, -0.032837, 0.242188, -0.969482, 0.366211, -0.122070, -0.183106,sit
80178, -0.031738, 0.241943, -0.968750, 0.305176, -0.122070, -0.183106,sit
80198, -0.032471, 0.241821, -0.969727, 0.366211, -0.122070, -0.183106,sit
80218, -0.033325, 0.242065, -0.968994, 0.305176, -0.122070, -0.183106,sit
80238, -0.031738, 0.241211, -0.968994, 0.366211, -0.122070, -0.183106,sit
80258, -0.032593, 0.242310, -0.968994, 0.366211, -0.122070, -0.183106,sit
80278, -0.032227, 0.242065, -0.968628, 0.366211, -0.122070, -0.183106,sit
80298, -0.032593, 0.242554, -0.968506, 0.305176, -0.122070, -0.183106,sit
80318, -0.033447, 0.242798, -0.969849, 0.366211, -0.122070, -0.244141,sit
80338, -0.031738, 0.242310, -0.968628, 0.366211, -0.061035, -0.244141,sit
80358, -0.031128, 0.242798, -0.968872, 0.366211, -0.183106, -0.183106,sit
80378, -0.032104, 0.242188, -0.969482, 0.366211, -0.122070, -0.183106,sit
80398, -0.031616, 0.242676, -0.969482, 0.305176, -0.122070, -0.183106,sit
80418, -0.032227, 0.242310, -0.968872, 0.366211, -0.122070, -0.183106,sit
80438, -0.032349, 0.242065, -0.969360, 0.366211, -0.122070, -0.183106,sit
80458, -0.032227, 0.242432, -0.969116, 0.366211, -0.061035, -0.183106,sit
80478, -0.031494, 0.242065, -0.968506, 0.305176, -0.122070, -0.244141,sit
80498, -0.032104, 0.242188, -0.968994, 0.366211, -0.061035, -0.183106,sit
80518, -0.031494, 0.242676, -0.968506, 0.366211, -0.122070, -0.183106,sit
80538, -0.032593, 0.242554, -0.968994, 0.366211, -0.122070, -0.183106,sit
80558, -0.033203, 0.241577, -0.968994, 0.305176, -0.122070, -0.244141,sit
80578, -0.031250, 0.241943, -0.968750, 0.305176, -0.061035, -0.244141,sit
80598, -0.031494, 0.242432, -0.968994, 0.366211, -0.122070, -0.183106,sit
80618, -0.032349, 0.242798, -0.969482, 0.366211, -0.122070, -0.244141,sit
80638, -0.031616, 0.241943, -0.968750, 0.366211, -0.122070, -0.183106,sit
80658, -0.031982, 0.241577, -0.968628, 0.305176, -0.122070, -0.183106,sit
80678, -0.032104, 0.242920, -0.969604, 0.366211, -0.122070, -0.183106,sit
80698, -0.031982, 0.242554, -0.969116, 0.366211, -0.122070, -0.183106,sit
80718, -0.032471, 0.242676, -0.968628, 0.366211, -0.122070, -0.244141,sit
80738, -0.031738, 0.242554, -0.969116, 0.366211, -0.122070, -0.183106,sit
80758, -0.031738, 0.241211, -0.968994, 0.366211, -0.122070, -0.183106,sit
80778, -0.032959, 0.242920, -0.969604, 0.305176, -0.061035, -0.183106,sit
80798, -0.032227, 0.242554, -0.968994, 0.366211, -0.122070, -0.183106,sit
80818, -0.030640, 0.240723, -0.968140, 0.305176, -0.061035, -0.183106,sit
80838, -0.032104, 0.241577, -0.969116, 0.305176, -0.122070, -0.244141,sit
80858, -0.032349, 0.242554, -0.968750, 0.366211, -0.122070, -0.183106,sit
80878, -0.031738, 0.241943, -0.968750, 0.366211, -0.122070, -0.183106,sit
80898, -0.032715, 0.241821, -0.969360, 0.305176, -0.122070, -0.183106,sit
80918, -0.031860, 0.241333, -0.968994, 0.366211, -0.122070, -0.244141,sit
80938, -0.032715, 0.242310, -0.968872, 0.305176, -0.061035, -0.183106,sit
80958, -0.031738, 0.241943, -0.968506, 0.366211, -0.122070, -0.183106,sit
80978, -0.030762, 0.243408, -0.969360, 0.366211, -0.122070, -0.183106,sit
80998, -0.031372, 0.241577, -0.968628, 0.366211, -0.122070, -0.244141,sit
81018, -0.032593, 0.241455, -0.968750, 0.366211, -0.122070, -0.183106,sit
81038, -0.031738, 0.242432, -0.969360, 0.305176, -0.122070, -0.183106,sit
81058, -0.030762, 0.242310, -0.969238, 0.305176, -0.122070, -0.183106,sit
81078, -0.032349, 0.242554, -0.968628, 0.305176, -0.122070, -0.183106,sit
81098, -0.031860, 0.242798, -0.968628, 0.366211, -0.122070, -0.183106,sit
81118, -0.032593, 0.242188, -0.969360, 0.366211, -0.122070, -0.183106,sit
81138, -0.033203, 0.241699, -0.968872, 0.305176, -0.122070, -0.183106,sit
81158, -0.031616, 0.242432, -0.968994, 0.366211, -0.122070, -0.183106,sit
81178, -0.033081, 0.242432, -0.969116, 0.305176, -0.122070, -0.183106,sit
81198, -0.032349, 0.241699, -0.969116, 0.305176, -0.122070, -0.183106,sit
81218, -0.031250, 0.242432, -0.968628, 0.366211, -0.122070, -0.183106,sit
81238, -0.032349, 0.242310, -0.968872, 0.366211, -0.122070, -0.183106,sit
81258, -0.031738, 0.241699, -0.968506, 0.305176, -0.122070, -0.183106,sit
81278, -0.032471, 0.242065, -0.968384, 0.366211, -0.122070, -0.183106,sit
81298, -0.033081, 0.242065, -0.968628, 0.366211, -0.122070, -0.183106,sit
81318, -0.031372, 0.242554, -0.968994, 0.305176, -0.122070, -0.183106,sit
81338, -0.031494, 0.241333, -0.969360, 0.366211, -0.122070, -0.183106,sit
81358, -0.032959, 0.242676, -0.967896, 0.305176, -0.122070, -0.183106,sit
81378, -0.031982, 0.242065, -0.968994, 0.366211, -0.122070, -0.183106,sit
81398, -0.032593, 0.241455, -0.969238, 0.305176, -0.122070, -0.183106,sit
81418, -0.031494, 0.242188, -0.968994, 0.366211, -0.122070, -0.183106,sit
81438, -0.032471, 0.241821, -0.969238, 0.305176, -0.122070, -0.183106,sit
81458, -0.033203, 0.241577, -0.968872, 0.305176, -0.122070, -0.183106,sit
81478, -0.032104, 0.242920, -0.969360, 0.305176, -0.122070, -0.183106,sit
81498, -0.031372, 0.242188, -0.968384, 0.366211, -0.122070, -0.183106,sit
81518, -0.031982, 0.241699, -0.969238, 0.305176, -0.122070, -0.183106,sit
81538, -0.031372, 0.242676, -0.968872, 0.366211, -0.122070, -0.183106,sit
81558, -0.032593, 0.243164, -0.968994, 0.366211, -0.183106, -0.183106,sit
81578, -0.032959, 0.241821, -0.968994, 0.366211, -0.122070, -0.183106,sit
81598, -0.031982, 0.242554, -0.968750, 0.366211, -0.122070, -0.183106,sit
81618, -0.032104, 0.242065, -0.968628, 0.366211, -0.122070, -0.244141,sit
81638, -0.032227, 0.242676, -0.968994, 0.366211, -0.122070, -0.183106,sit
81658, -0.031738, 0.241943, -0.968750, 0.366211, -0.122070, -0.244141,sit
81678, -0.032349, 0.242798, -0.969116, 0.366211, -0.122070, -0.183106,sit
81698, -0.031860, 0.242188, -0.968018, 0.366211, -0.122070, -0.183106,sit
81718, -0.031494, 0.242188, -0.968750, 0.366211, -0.122070, -0.183106,sit
81738, -0.031128, 0.241699, -0.969116, 0.366211, -0.122070, -0.183106,sit
81758, -0.032715, 0.242065, -0.968628, 0.305176, -0.122070, -0.183106,sit
81778, -0.031250, 0.242310, -0.969238, 0.366211, -0.122070, -0.183106,sit
81798, -0.031982, 0.243042, -0.968140, 0.366211, -0.122070, -0.183106,sit
81818, -0.031982, 0.242432, -0.968506, 0.366211, -0.122070, -0.183106,sit
81838, -0.032104, 0.242310, -0.968506, 0.366211, -0.122070, -0.183106,sit
81858, -0.031250, 0.241577, -0.968994, 0.366211, -0.122070, -0.183106,sit
81878, -0.032104, 0.241821, -0.969238, 0.366211, -0.122070, -0.183106,sit
81898, -0.032104, 0.241943, -0.968140, 0.366211, -0.122070, -0.183106,sit
81918, -0.032837, 0.242065, -0.969482, 0.427246, -0.122070, -0.183106,sit
81938, -0.031738, 0.242554, -0.968262, 0.366211, -0.122070, -0.183106,sit
81958, -0.031006, 0.241943, -0.969116, 0.366211, -0.122070, -0.183106,sit
81978, -0.032227, 0.241943, -0.968872, 0.366211, -0.122070, -0.183106,sit
81998, -0.032104, 0.242188, -0.969238, 0.366211, -0.122070, -0.183106,sit
82018, -0.031738, 0.240845, -0.968872, 0.366211, -0.122070, -0.183106,sit
82038, -0.032593, 0.241577, -0.969482, 0.305176, -0.122070, -0.183106,sit
82058, -0.033081, 0.242432, -0.968262, 0.366211, -0.122070, -0.183106,sit
82078, -0.032227, 0.242432, -0.969116, 0.305176, -0.122070, -0.183106,sit
82098, -0.032837, 0.242065, -0.968872, 0.366211, -0.122070, -0.183106,sit
82118, -0.031372, 0.242920, -0.968994, 0.366211, -0.122070, -0.244141,sit
82138, -0.031982, 0.241821, -0.968994, 0.366211, -0.122070, -0.183106,sit
82158, -0.032837, 0.241821, -0.968750, 0.305176, -0.122070, -0.183106,sit
82178, -0.031860, 0.243042, -0.969360, 0.366211, -0.122070, -0.183106,sit
82198, -0.032227, 0.242920, -0.968384, 0.366211, -0.122070, -0.183106,sit
82218, -0.032471, 0.241943, -0.969238, 0.305176, -0.122070, -0.183106,sit
82238, -0.031738, 0.242676, -0.968506, 0.366211, -0.122070, -0.183106,sit
82258, -0.032959, 0.242188, -0.969360, 0.366211, -0.122070, -0.183106,sit
82278, -0.033203, 0.242310, -0.968994, 0.366211, -0.122070, -0.183106,sit
82298, -0.031372, 0.241821, -0.969238, 0.305176, -0.122070, -0.183106,sit
82318, -0.032715, 0.242310, -0.969604, 0.305176, -0.122070, -0.244141,sit
82338, -0.032593, 0.241943, -0.969116, 0.366211, -0.122070, -0.183106,sit
82358, -0.031494, 0.241943, -0.968750, 0.305176, -0.122070, -0.183106,sit
82378, -0.032593, 0.241699, -0.969971, 0.366211, -0.122070, -0.183106,sit
82398, -0.031738, 0.242065, -0.968384, 0.305176, -0.122070, -0.183106,sit
82418, -0.031982, 0.241211, -0.968994, 0.366211, -0.122070, -0.183106,sit
82438, -0.032104, 0.241943, -0.969116, 0.366211, -0.122070, -0.183106,sit
82458, -0.032837, 0.241821, -0.968506, 0.366211, -0.122070, -0.244141,sit
82478, -0.032471, 0.241211, -0.969482, 0.366211, -0.122070, -0.183106,sit
82498, -0.032715, 0.241333, -0.969360, 0.305176, -0.122070, -0.183106,sit
82518, -0.031616, 0.241455, -0.968872, 0.366211, -0.122070, -0.183106,sit
82538, -0.031616, 0.242310, -0.969360, 0.366211, -0.122070, -0.183106,sit
82558, -0.032715, 0.242065, -0.968994, 0.366211, -0.122070, -0.183106,sit
82578, -0.032104, 0.243286, -0.969116, 0.305176, -0.061035, -0.183106,sit
82598, -0.032715, 0.241699, -0.968994, 0.366211, -0.122070, -0.183106,sit
82618, -0.032349, 0.242188, -0.969238, 0.366211, -0.122070, -0.183106,sit
82638, -0.032593, 0.242432, -0.968262, 0.366211, -0.122070, -0.183106,sit
82658, -0.031860, 0.242188, -0.968750, 0.366211, -0.122070, -0.183106,sit
82678, -0.033203, 0.242188, -0.969116, 0.366211, -0.122070, -0.183106,sit
82698, -0.031128, 0.241821, -0.968262, 0.366211, -0.122070, -0.183106,sit
82718, -0.031250, 0.242432, -0.969360, 0.305176, -0.122070, -0.183106,sit
82738, -0.032959, 0.241577, -0.968506, 0.366211, -0.122070, -0.122070,sit
82758, -0.031494, 0.241699, -0.968994, 0.305176, -0.122070, -0.183106,sit
82778, -0.032715, 0.241455, -0.969360, 0.366211, -0.122070, -0.183106,sit
82798, -0.032837, 0.241821, -0.968872, 0.366211, -0.122070, -0.183106,sit
82818, -0.032104, 0.241455, -0.968994, 0.366211, -0.183106, -0.183106,sit
82838, -0.032715, 0.242432, -0.969360, 0.366211, -0.122070, -0.244141,sit
82858, -0.032959, 0.241943, -0.968262, 0.305176, -0.122070, -0.183106,sit
82878, -0.031860, 0.242920, -0.968994, 0.366211, -0.122070, -0.183106,sit
82898, -0.033447, 0.241699, -0.969849, 0.305176, -0.122070, -0.244141,sit
82918, -0.033203, 0.242065, -0.968628, 0.366211, -0.122070, -0.244141,sit
82938, -0.031616, 0.242554, -0.968628, 0.305176, -0.122070, -0.183106,sit
82958, -0.032715, 0.242310, -0.969482, 0.366211, -0.122070, -0.183106,sit
82978, -0.031372, 0.241943, -0.968262, 0.305176, -0.122070, -0.183106,sit
82998, -0.031616, 0.241943, -0.969238, 0.305176, -0.122070, -0.244141,sit
83018, -0.033081, 0.241699, -0.968750, 0.305176, -0.122070, -0.183106,sit
83038, -0.031616, 0.241455, -0.968872, 0.366211, -0.122070, -0.183106,sit
83058, -0.031738, 0.241821, -0.969238, 0.366211, -0.122070, -0.183106,sit
83078, -0.033081, 0.241821, -0.969604, 0.366211, -0.122070, -0.183106,sit
83098, -0.031250, 0.242188, -0.968994, 0.366211, -0.122070, -0.183106,sit
83118, -0.032837, 0.241821, -0.968872, 0.366211, -0.122070, -0.183106,sit
83138, -0.032471, 0.243042, -0.969238, 0.366211, -0.122070, -0.183106,sit
83158, -0.031006, 0.242188, -0.968628, 0.366211, -0.122070, -0.183106,sit
83178, -0.032471, 0.242188, -0.969360, 0.366211, -0.122070, -0.183106,sit
83198, -0.032837, 0.243164, -0.969482, 0.305176, -0.122070, -0.183106,sit
83218, -0.031006, 0.242065, -0.968872, 0.366211, -0.122070, -0.183106,sit
83238, -0.032471, 0.242798, -0.969482, 0.366211, -0.122070, -0.183106,sit
83258, -0.032349, 0.242432, -0.969116, 0.366211, -0.122070, -0.183106,sit
83278, -0.031982, 0.241455, -0.968018, 0.366211, -0.122070, -0.183106,sit
83298, -0.032349, 0.241455, -0.969971, 0.305176, -0.122070, -0.183106,sit
83318, -0.031982, 0.242798, -0.968628, 0.366211, -0.122070, -0.183106,sit
83338, -0.031738, 0.242554, -0.968628, 0.366211, -0.122070, -0.183106,sit
83358, -0.032959, 0.241333, -0.968994, 0.305176, -0.122070, -0.183106,sit
83378, -0.032349, 0.242920, -0.969360, 0.305176, -0.122070, -0.183106,sit
83398, -0.031372, 0.242798, -0.969604, 0.427246, -0.183106, -0.183106,sit
83418, -0.032471, 0.242188, -0.969360, 0.305176, -0.122070, -0.183106,sit
83438, -0.031372, 0.242432, -0.968506, 0.366211, -0.122070, -0.183106,sit
83458, -0.031128, 0.241943, -0.969482, 0.366211, -0.122070, -0.183106,sit
83478, -0.032837, 0.241699, -0.969727, 0.366211, -0.122070, -0.183106,sit
83498, -0.031860, 0.242188, -0.968628, 0.366211, -0.122070, -0.183106,sit
83518, -0.031372, 0.242065, -0.969238, 0.366211, -0.122070, -0.183106,sit
83538, -0.032593, 0.242798, -0.969604, 0.366211, -0.122070, -0.183106,sit
83558, -0.031128, 0.242065, -0.969116, 0.366211, -0.122070, -0.183106,sit
83578, -0.032227, 0.242554, -0.969604, 0.366211, -0.122070, -0.183106,sit
83598, -0.033936, 0.242676, -0.969116, 0.366211, -0.122070, -0.244141,sit
83618, -0.031738, 0.241943, -0.968384, 0.366211, -0.122070, -0.183106,sit
83638, -0.033203, 0.241821, -0.969238, 0.366211, -0.122070, -0.183106,sit
83658, -0.032715, 0.242554, -0.969116, 0.366211, -0.122070, -0.183106,sit
83678, -0.031372, 0.242065, -0.968872, 0.366211, -0.122070, -0.183106,sit
83698, -0.032959, 0.242676, -0.969727, 0.305176, -0.122070, -0.183106,sit
83718, -0.031738, 0.242676, -0.969482, 0.366211, -0.122070, -0.183106,sit
83738, -0.031250, 0.242310, -0.968262, 0.366211, -0.122070, -0.244141,sit
83758, -0.032104, 0.241821, -0.968872, 0.366211, -0.122070, -0.183106,sit
83778, -0.031860, 0.242676, -0.969116, 0.366211, -0.122070, -0.183106,sit
83798, -0.032349, 0.242432, -0.969238, 0.366211, -0.122070, -0.183106,sit
83818, -0.033203, 0.241943, -0.968628, 0.305176, -0.122070, -0.244141,sit
83838, -0.031494, 0.242676, -0.969238, 0.305176, -0.122070, -0.183106,sit
83858, -0.031250, 0.241699, -0.968994, 0.366211, -0.122070, -0.183106,sit
83878, -0.032837, 0.241699, -0.969116, 0.305176, -0.122070, -0.183106,sit
83898, -0.031860, 0.242554, -0.968872, 0.366211, -0.122070, -0.183106,sit
83918, -0.031494, 0.241211, -0.969238, 0.305176, -0.122070, -0.183106,sit
83938, -0.032959, 0.242554, -0.968872, 0.366211, -0.122070, -0.183106,sit
83958, -0.031982, 0.242554, -0.969238, 0.366211, -0.122070, -0.183106,sit
83978, -0.032104, 0.241089, -0.969727, 0.305176, -0.183106, -0.183106,sit
83998, -0.032227, 0.243164, -0.969238, 0.366211, -0.122070, -0.183106,sit
84018, -0.031616, 0.242310, -0.969604, 0.366211, -0.122070, -0.183106,sit
84038, -0.032227, 0.241699, -0.969360, 0.366211, -0.122070, -0.183106,sit
84058, -0.032593, 0.241821, -0.969360, 0.366211, -0.122070, -0.183106,sit
84078, -0.031860, 0.242554, -0.969482, 0.366211, -0.122070, -0.183106,sit
84098, -0.032471, 0.241699, -0.968506, 0.305176, -0.122070, -0.183106,sit
84118, -0.032471, 0.242554, -0.969727, 0.366211, -0.122070, -0.183106,sit
84138, -0.031616, 0.242310, -0.969604, 0.366211, -0.122070, -0.183106,sit
84158, -0.031982, 0.242432, -0.969360, 0.366211, -0.122070, -0.183106,sit
84178, -0.032959, 0.242920, -0.968994, 0.366211, -0.122070, -0.183106,sit
84198, -0.032104, 0.242798, -0.969360, 0.305176, -0.122070, -0.183106,sit
84218, -0.032593, 0.242798, -0.969116, 0.366211, -0.183106, -0.183106,sit
84238, -0.032227, 0.242188, -0.969604, 0.366211, -0.122070, -0.183106,sit
84258, -0.031982, 0.242432, -0.968994, 0.305176, -0.122070, -0.183106,sit
84278, -0.032471, 0.242554, -0.968994, 0.305176, -0.122070, -0.183106,sit
84298, -0.031982, 0.242065, -0.969482, 0.366211, -0.122070, -0.244141,sit
84318, -0.032104, 0.241943, -0.969116, 0.305176, -0.122070, -0.183106,sit
84338, -0.031738, 0.242920, -0.969360, 0.366211, -0.122070, -0.183106,sit
84358, -0.032104, 0.242065, -0.969116, 0.366211, -0.122070, -0.183106,sit
84378, -0.031738, 0.242798, -0.969360, 0.366211, -0.122070, -0.244141,sit
84398, -0.031860, 0.242798, -0.968750, 0.366211, -0.122070, -0.183106,sit
84418, -0.031250, 0.243408, -0.969238, 0.366211, -0.122070, -0.183106,sit
84438, -0.031738, 0.242554, -0.969238, 0.366211, -0.122070, -0.183106,sit
84458, -0.031738, 0.241821, -0.969849, 0.305176, -0.122070, -0.183106,sit
84478, -0.031494, 0.243530, -0.968994, 0.366211, -0.122070, -0.183106,sit
84498, -0.033203, 0.241333, -0.969116, 0.366211, -0.061035, -0.244141,sit
84518, -0.032715, 0.242432, -0.968750, 0.305176, -0.122070, -0.183106,sit
84538, -0.032104, 0.242920, -0.968628, 0.305176, -0.122070, -0.183106,sit
84558, -0.031860, 0.242188, -0.969604, 0.366211, -0.122070, -0.183106,sit
84578, -0.032593, 0.241943, -0.969116, 0.366211, -0.122070, -0.183106,sit
84598, -0.031494, 0.242676, -0.968994, 0.366211, -0.122070, -0.244141,sit
84618, -0.032837, 0.242310, -0.968750, 0.366211, -0.122070, -0.183106,sit
84638, -0.032715, 0.242676, -0.969849, 0.366211, -0.122070, -0.183106,sit
84658, -0.031860, 0.242920, -0.968994, 0.366211, -0.122070, -0.183106,sit
84678, -0.032837, 0.241943, -0.970093, 0.366211, -0.122070, -0.183106,sit
84698, -0.032471, 0.242188, -0.969238, 0.366211, -0.122070, -0.183106,sit
84718, -0.031982, 0.242798, -0.968872, 0.366211, -0.122070, -0.183106,sit
84738, -0.031860, 0.242920, -0.969116, 0.366211, -0.122070, -0.183106,sit
84758, -0.032837, 0.242432, -0.968628, 0.366211, -0.122070, -0.244141,sit
84778, -0.032593, 0.241577, -0.969727, 0.366211, -0.122070, -0.183106,sit
84798, -0.032959, 0.242554, -0.968994, 0.305176, -0.122070, -0.183106,sit
84818, -0.031738, 0.242554, -0.969238, 0.366211, -0.183106, -0.183106,sit
84838, -0.032959, 0.242676, -0.968872, 0.366211, -0.122070, -0.183106,sit
84858, -0.033203, 0.242554, -0.968994, 0.366211, -0.183106, -0.183106,sit
84878, -0.031860, 0.242676, -0.969116, 0.366211, -0.122070, -0.183106,sit
84898, -0.032104, 0.241943, -0.969604, 0.366211, -0.122070, -0.183106,sit
84918, -0.031860, 0.242310, -0.969482, 0.305176, -0.122070, -0.183106,sit
84938, -0.031616, 0.241211, -0.968994, 0.305176, -0.122070, -0.244141,sit
84958, -0.032837, 0.243042, -0.969116, 0.366211, -0.122070, -0.183106,sit
84978, -0.032349, 0.243042, -0.968872, 0.305176, -0.122070, -0.183106,sit
84998, -0.030762, 0.242310, -0.969604, 0.366211, -0.122070, -0.183106,sit
85018, -0.032959, 0.241943, -0.968750, 0.305176, -0.122070, -0.183106,sit
85038, -0.032593, 0.242798, -0.968506, 0.366211, -0.122070, -0.183106,sit
85058, -0.032715, 0.242310, -0.968506, 0.366211, -0.122070, -0.183106,sit
85078, -0.031616, 0.242065, -0.968872, 0.305176, -0.122070, -0.183106,sit
85098, -0.032471, 0.242188, -0.968628, 0.366211, -0.122070, -0.183106,sit
85118, -0.033081, 0.241333, -0.969727, 0.366211, -0.122070, -0.244141,sit
85138, -0.033325, 0.241943, -0.968628, 0.366211, -0.122070, -0.183106,sit
85158, -0.031616, 0.242188, -0.968872, 0.366211, -0.061035, -0.183106,sit
85178, -0.032471, 0.242676, -0.969482, 0.366211, -0.122070, -0.183106,sit
85198, -0.033203, 0.241821, -0.967896, 0.305176, -0.122070, -0.183106,sit
85218, -0.031860, 0.242310, -0.968994, 0.366211, -0.122070, -0.244141,sit
85238, -0.032104, 0.241455, -0.969360, 0.366211, -0.122070, -0.183106,sit
85258, -0.032715, 0.241455, -0.968872, 0.366211, -0.122070, -0.183106,sit
85278, -0.030884, 0.242310, -0.969116, 0.305176, -0.122070, -0.183106,sit
85298, -0.032959, 0.242798, -0.969116, 0.366211, -0.122070, -0.183106,sit
85318, -0.032715, 0.241943, -0.968262, 0.366211, -0.122070, -0.183106,sit
85338, -0.031982, 0.241943, -0.968750, 0.366211, -0.122070, -0.183106,sit
85358, -0.032227, 0.241699, -0.969971, 0.305176, -0.122070, -0.244141,sit
85378, -0.032471, 0.241821, -0.968994, 0.427246, -0.122070, -0.183106,sit
85398, -0.031494, 0.242188, -0.968262, 0.366211, -0.122070, -0.183106,sit
85418, -0.032959, 0.241699, -0.968750, 0.366211, -0.122070, -0.244141,sit
85438, -0.032349, 0.242676, -0.969604, 0.366211, -0.122070, -0.183106,sit
85458, -0.032227, 0.241699, -0.968506, 0.366211, -0.122070, -0.183106,sit
85478, -0.031982, 0.241577, -0.969482, 0.305176, -0.122070, -0.183106,sit
85498, -0.031006, 0.241577, -0.968872, 0.305176, -0.122070, -0.183106,sit
85518, -0.031738, 0.242188, -0.968872, 0.366211, -0.122070, -0.183106,sit
85538, -0.032471, 0.240967, -0.969116, 0.305176, -0.122070, -0.183106,sit
85558, -0.031616, 0.242432, -0.969360, 0.366211, -0.122070, -0.183106,sit
85578, -0.031616, 0.242188, -0.969116, 0.366211, -0.122070, -0.183106,sit
85598, -0.032715, 0.241943, -0.968750, 0.305176, -0.122070, -0.183106,sit
85618, -0.031982, 0.242554, -0.968750, 0.366211, -0.122070, -0.244141,sit
85638, -0.031982, 0.241821, -0.968750, 0.366211, -0.122070, -0.183106,sit
85658, -0.031982, 0.241577, -0.969238, 0.305176, -0.122070, -0.244141,sit
85678, -0.031250, 0.242065, -0.968628, 0.366211, -0.122070, -0.244141,sit
85698, -0.031982, 0.241577, -0.968994, 0.305176, -0.122070, -0.183106,sit
85718, -0.032471, 0.242310, -0.968750, 0.305176, -0.122070, -0.183106,sit
85738, -0.031738, 0.242065, -0.968506, 0.427246, -0.122070, -0.183106,sit
85758, -0.032471, 0.242432, -0.969971, 0.366211, -0.122070, -0.183106,sit
85778, -0.033081, 0.242188, -0.969360, 0.366211, -0.122070, -0.183106,sit
85798, -0.031982, 0.242188, -0.968872, 0.305176, -0.122070, -0.183106,sit
85818, -0.032349, 0.241821, -0.969727, 0.305176, -0.122070, -0.183106,sit
85838, -0.031250, 0.242310, -0.969238, 0.366211, -0.122070, -0.183106,sit
85858, -0.032227, 0.241943, -0.969116, 0.366211, -0.061035, -0.183106,sit
85878, -0.032715, 0.242188, -0.969849, 0.305176, -0.122070, -0.183106,sit
85898, -0.032593, 0.242432, -0.968872, 0.305176, -0.122070, -0.183106,sit
85918, -0.031982, 0.243164, -0.968262, 0.366211, -0.122070, -0.183106,sit
85938, -0.033081, 0.241943, -0.968750, 0.366211, -0.122070, -0.244141,sit
85958, -0.032104, 0.242432, -0.968994, 0.366211, -0.122070, -0.244141,sit
85978, -0.031372, 0.242065, -0.969360, 0.305176, -0.122070, -0.183106,sit
85998, -0.033081, 0.242798, -0.969238, 0.366211, -0.122070, -0.183106,sit
86018, -0.031738, 0.242554, -0.968994, 0.366211, -0.122070, -0.183106,sit
86038, -0.032715, 0.241089, -0.968628, 0.366211, -0.122070, -0.183106,sit
86058, -0.032837, 0.241943, -0.969360, 0.366211, -0.122070, -0.183106,sit
86078, -0.032227, 0.241821, -0.967651, 0.366211, -0.122070, -0.183106,sit
86098, -0.031128, 0.241211, -0.969604, 0.366211, -0.122070, -0.183106,sit
86118, -0.032593, 0.242432, -0.969971, 0.305176, -0.122070, -0.183106,sit
86138, -0.031860, 0.241455, -0.968750, 0.366211, -0.122070, -0.183106,sit
86158, -0.032104, 0.242310, -0.969360, 0.366211, -0.122070, -0.183106,sit
86178, -0.032349, 0.243164, -0.969116, 0.366211, -0.122070, -0.183106,sit
86198, -0.031372, 0.242065, -0.968994, 0.366211, -0.122070, -0.183106,sit
86218, -0.032715, 0.241821, -0.968750, 0.366211, -0.122070, -0.183106,sit
86238, -0.033081, 0.242554, -0.968872, 0.305176, -0.122070, -0.244141,sit
86258, -0.031372, 0.242798, -0.968628, 0.366211, -0.122070, -0.244141,sit
86278, -0.032471, 0.241455, -0.969482, 0.305176, -0.122070, -0.183106,sit
86298, -0.032227, 0.241699, -0.968506, 0.305176, -0.061035, -0.183106,sit
86318, -0.031616, 0.242188, -0.969482, 0.366211, -0.122070, -0.183106,sit
86338, -0.032227, 0.242188, -0.969238, 0.366211, -0.122070, -0.183106,sit
86358, -0.031982, 0.242676, -0.968994, 0.366211, -0.122070, -0.183106,sit
86378, -0.031738, 0.242310, -0.968994, 0.366211, -0.122070, -0.183106,sit
86398, -0.032837, 0.241333, -0.969360, 0.366211, -0.122070, -0.183106,sit
86418, -0.031616, 0.241333, -0.968750, 0.366211, -0.122070, -0.183106,sit
86438, -0.031006, 0.242554, -0.969116, 0.305176, -0.122070, -0.183106,sit
86458, -0.032593, 0.241943, -0.969482, 0.305176, -0.122070, -0.183106,sit
86478, -0.031738, 0.241943, -0.968872, 0.305176, -0.122070, -0.183106,sit
86498, -0.031616, 0.242310, -0.968994, 0.305176, -0.122070, -0.183106,sit
86518, -0.033081, 0.242065, -0.969971, 0.366211, -0.122070, -0.183106,sit
86538, -0.031616, 0.242065, -0.969727, 0.366211, -0.122070, -0.183106,sit
86558, -0.031616, 0.242554, -0.968994, 0.305176, -0.122070, -0.183106,sit
86578, -0.032349, 0.242554, -0.969971, 0.366211, -0.122070, -0.183106,sit
86598, -0.031738, 0.242065, -0.968872, 0.366211, -0.122070, -0.183106,sit
86618, -0.031982, 0.242188, -0.969604, 0.305176, -0.122070, -0.183106,sit
86638, -0.032837, 0.242676, -0.969849, 0.366211, -0.122070, -0.183106,sit
86658, -0.031738, 0.241699, -0.968872, 0.366211, -0.061035, -0.183106,sit
86678, -0.032471, 0.242065, -0.969482, 0.366211, -0.122070, -0.183106,sit
86698, -0.032959, 0.242554, -0.968994, 0.366211, -0.122070, -0.183106,sit
86718, -0.032227, 0.241821, -0.968872, 0.366211, -0.122070, -0.183106,sit
86738, -0.032104, 0.242920, -0.968872, 0.305176, -0.122070, -0.183106,sit
86758, -0.032227, 0.242310, -0.969360, 0.366211, -0.122070, -0.183106,sit
86778, -0.032104, 0.242065, -0.969360, 0.366211, -0.122070, -0.183106,sit
86798, -0.032715, 0.241821, -0.969482, 0.366211, -0.122070, -0.183106,sit
86818, -0.032227, 0.242798, -0.969360, 0.366211, -0.122070, -0.183106,sit
86838, -0.032349, 0.241821, -0.968872, 0.305176, -0.061035, -0.183106,sit
86858, -0.032837, 0.242554, -0.970093, 0.366211, -0.122070, -0.183106,sit
86878, -0.031860, 0.241333, -0.969727, 0.366211, -0.122070, -0.183106,sit
86898, -0.032104, 0.242310, -0.968994, 0.366211, -0.061035, -0.183106,sit
86918, -0.031616, 0.241821, -0.969116, 0.305176, -0.122070, -0.183106,sit
86938, -0.032349, 0.242676, -0.969604, 0.366211, -0.122070, -0.183106,sit
86958, -0.031738, 0.242065, -0.968872, 0.427246, -0.122070, -0.183106,sit
86978, -0.032959, 0.241577, -0.969238, 0.305176, -0.122070, -0.183106,sit
86998, -0.031860, 0.242920, -0.968994, 0.366211, -0.122070, -0.183106,sit
87018, -0.031250, 0.241943, -0.968994, 0.366211, -0.122070, -0.183106,sit
87038, -0.033691, 0.242065, -0.969116, 0.366211, -0.122070, -0.183106,sit
87058, -0.031982, 0.241943, -0.968994, 0.366211, -0.122070, -0.183106,sit
87078, -0.032349, 0.241699, -0.969238, 0.305176, -0.122070, -0.244141,sit
87098, -0.033203, 0.242310, -0.969604, 0.366211, -0.122070, -0.183106,sit
87118, -0.031616, 0.242432, -0.968872, 0.366211, -0.122070, -0.183106,sit
87138, -0.032227, 0.241699, -0.969116, 0.305176, -0.122070, -0.183106,sit
87158, -0.031860, 0.241821, -0.969360, 0.366211, -0.122070, -0.183106,sit
87178, -0.031494, 0.242188, -0.968994, 0.305176, -0.122070, -0.183106,sit
87198, -0.032593, 0.242065, -0.969604, 0.305176, -0.061035, -0.183106,sit
87218, -0.031982, 0.242310, -0.969116, 0.305176, -0.122070, -0.183106,sit
87238, -0.031372, 0.241943, -0.969971, 0.366211, -0.122070, -0.183106,sit
87258, -0.032471, 0.241821, -0.968750, 0.305176, -0.122070, -0.183106,sit
87278, -0.032593, 0.243042, -0.969116, 0.366211, -0.122070, -0.183106,sit
87298, -0.031372, 0.242920, -0.968140, 0.366211, -0.122070, -0.183106,sit
87318, -0.033447, 0.242920, -0.969971, 0.366211, -0.122070, -0.244141,sit
87338, -0.031250, 0.241943, -0.969238, 0.305176, -0.122070, -0.183106,sit
87358, -0.031738, 0.241943, -0.968628, 0.305176, -0.122070, -0.183106,sit
87378, -0.032104, 0.242798, -0.969482, 0.366211, -0.122070, -0.183106,sit
87398, -0.031738, 0.242188, -0.969360, 0.366211, -0.122070, -0.183106,sit
87418, -0.031738, 0.241577, -0.969238, 0.366211, -0.183106, -0.183106,sit
87438, -0.032471, 0.242432, -0.969849, 0.366211, -0.122070, -0.183106,sit
87458, -0.031982, 0.243164, -0.969116, 0.427246, -0.122070, -0.244141,sit
87478, -0.032837, 0.241821, -0.968872, 0.366211, -0.122070, -0.183106,sit
87498, -0.031860, 0.242676, -0.969727, 0.366211, -0.122070, -0.183106,sit
87518, -0.032227, 0.242432, -0.969360, 0.366211, -0.122070, -0.183106,sit
87538, -0.031982, 0.241089, -0.968628, 0.366211, -0.122070, -0.183106,sit
87558, -0.031372, 0.242798, -0.969116, 0.366211, -0.122070, -0.183106,sit
87578, -0.032471, 0.242065, -0.969360, 0.366211, -0.122070, -0.183106,sit
87598, -0.031860, 0.242554, -0.970093, 0.305176, -0.122070, -0.183106,sit
87618, -0.032227, 0.242676, -0.968872, 0.366211, -0.122070, -0.183106,sit
87638, -0.031738, 0.241699, -0.969971, 0.366211, -0.122070, -0.183106,sit
87658, -0.032471, 0.241699, -0.968994, 0.366211, -0.122070, -0.183106,sit
87678, -0.032104, 0.242188, -0.969482, 0.305176, -0.122070, -0.183106,sit
87698, -0.032227, 0.241943, -0.969238, 0.366211, -0.183106, -0.183106,sit
87718, -0.033081, 0.241089, -0.968994, 0.305176, -0.122070, -0.183106,sit
87738, -0.031738, 0.242432, -0.969360, 0.366211, -0.122070, -0.183106,sit
87758, -0.032349, 0.241821, -0.969604, 0.305176, -0.122070, -0.183106,sit
87778, -0.032593, 0.242432, -0.969849, 0.305176, -0.122070, -0.183106,sit
87798, -0.033447, 0.241943, -0.969116, 0.366211, -0.122070, -0.183106,sit
87818, -0.031616, 0.241333, -0.969116, 0.366211, -0.122070, -0.183106,sit
87838, -0.032471, 0.242432, -0.969116, 0.366211, -0.122070, -0.183106,sit
87858, -0.031250, 0.242188, -0.969482, 0.366211, -0.122070, -0.183106,sit
87878, -0.031494, 0.240601, -0.968994, 0.366211, -0.122070, -0.183106,sit
87898, -0.032349, 0.243042, -0.969116, 0.305176, -0.122070, -0.183106,sit
87918, -0.031982, 0.242310, -0.969116, 0.366211, -0.122070, -0.183106,sit
87938, -0.031982, 0.241577, -0.969238, 0.366211, -0.122070, -0.183106,sit
87958, -0.032593, 0.242310, -0.968628, 0.366211, -0.122070, -0.183106,sit
87978, -0.031494, 0.241821, -0.969849, 0.366211, -0.061035, -0.183106,sit
87998, -0.031982, 0.242310, -0.969238, 0.366211, -0.122070, -0.183106,sit
88018, -0.032471, 0.242188, -0.969482, 0.366211, -0.122070, -0.183106,sit
88038, -0.030762, 0.241699, -0.970093, 0.366211, -0.122070, -0.183106,sit
88058, -0.032593, 0.241699, -0.968994, 0.305176, -0.122070, -0.244141,sit
88078, -0.032471, 0.242310, -0.969482, 0.305176, -0.122070, -0.183106,sit
88098, -0.031860, 0.241943, -0.969360, 0.366211, -0.122070, -0.183106,sit
88118, -0.031738, 0.243530, -0.969116, 0.305176, -0.122070, -0.183106,sit
88138, -0.031738, 0.241699, -0.969238, 0.366211, -0.122070, -0.183106,sit
88158, -0.032593, 0.242310, -0.969849, 0.366211, -0.122070, -0.183106,sit
88178, -0.032959, 0.241089, -0.969238, 0.366211, -0.122070, -0.183106,sit
88198, -0.031982, 0.242065, -0.969604, 0.305176, -0.061035, -0.183106,sit
88218, -0.031982, 0.242432, -0.969238, 0.366211, -0.122070, -0.183106,sit
88238, -0.032837, 0.242065, -0.968994, 0.366211, -0.122070, -0.183106,sit
88258, -0.031494, 0.242188, -0.969116, 0.305176, -0.122070, -0.183106,sit
88278, -0.032227, 0.241821, -0.968384, 0.366211, -0.122070, -0.183106,sit
88298, -0.032715, 0.242065, -0.968994, 0.305176, -0.122070, -0.183106,sit
88318, -0.032349, 0.241455, -0.968628, 0.305176, -0.122070, -0.244141,sit
88338, -0.032959, 0.241943, -0.969849, 0.366211, -0.122070, -0.183106,sit
88358, -0.032227, 0.241943, -0.968750, 0.305176, -0.122070, -0.183106,sit
88378, -0.032104, 0.241821, -0.969116, 0.366211, -0.061035, -0.183106,sit
88398, -0.032471, 0.242065, -0.969604, 0.366211, -0.122070, -0.183106,sit
88418, -0.032837, 0.242432, -0.968750, 0.366211, -0.122070, -0.183106,sit
88438, -0.032104, 0.242188, -0.968750, 0.366211, -0.122070, -0.183106,sit
88458, -0.032227, 0.242065, -0.969116, 0.366211, -0.122070, -0.244141,sit
88478, -0.031128, 0.241699, -0.968994, 0.305176, -0.122070, -0.183106,sit
88498, -0.032593, 0.241943, -0.968628, 0.366211, -0.061035, -0.244141,sit
88518, -0.032837, 0.242065, -0.969482, 0.366211, -0.122070, -0.183106,sit
88538, -0.032715, 0.242554, -0.968750, 0.366211, -0.122070, -0.183106,sit
88558, -0.031006, 0.242188, -0.968872, 0.366211, -0.122070, -0.244141,sit
88578, -0.032227, 0.242432, -0.969482, 0.305176, -0.122070, -0.183106,sit
88598, -0.032227, 0.242432, -0.968750, 0.305176, -0.122070, -0.183106,sit
88618, -0.031128, 0.242310, -0.970215, 0.305176, -0.122070, -0.183106,sit
88638, -0.032959, 0.242310, -0.969116, 0.366211, -0.122070, -0.183106,sit
88658, -0.031494, 0.242432, -0.968262, 0.366211, -0.122070, -0.183106,sit
88678, -0.031982, 0.241455, -0.968994, 0.366211, -0.122070, -0.183106,sit
88698, -0.032593, 0.242065, -0.969116, 0.305176, -0.122070, -0.183106,sit
88718, -0.031128, 0.242920, -0.968872, 0.305176, -0.122070, -0.183106,sit
88738, -0.031982, 0.241455, -0.970093, 0.427246, -0.122070, -0.183106,sit
88758, -0.032349, 0.242310, -0.968506, 0.366211, -0.122070, -0.183106,sit
88778, -0.031860, 0.242065, -0.968140, 0.366211, -0.122070, -0.183106,sit
88798, -0.032349, 0.242188, -0.969360, 0.366211, -0.122070, -0.183106,sit
88818, -0.032593, 0.242432, -0.968872, 0.305176, -0.122070, -0.183106,sit
88838, -0.031372, 0.242188, -0.969604, 0.366211, -0.122070, -0.183106,sit
88858, -0.032959, 0.241577, -0.969849, 0.305176, -0.122070, -0.183106,sit
88878, -0.032593, 0.241821, -0.970093, 0.366211, -0.122070, -0.183106,sit
88898, -0.031006, 0.242798, -0.968628, 0.305176, -0.122070, -0.183106,sit
88918, -0.032104, 0.242310, -0.969482, 0.305176, -0.122070, -0.244141,sit
88938, -0.032715, 0.241943, -0.969360, 0.305176, -0.061035, -0.183106,sit
88958, -0.031372, 0.242310, -0.969727, 0.366211, -0.122070, -0.183106,sit
88978, -0.032471, 0.242432, -0.969360, 0.366211, -0.122070, -0.183106,sit
88998, -0.031250, 0.241577, -0.969116, 0.305176, -0.122070, -0.183106,sit
89018, -0.032837, 0.241699, -0.969238, 0.366211, -0.122070, -0.183106,sit
89038, -0.031494, 0.242676, -0.969482, 0.366211, -0.122070, -0.244141,sit
89058, -0.031250, 0.242798, -0.969849, 0.366211, -0.122070, -0.183106,sit
89078, -0.031738, 0.242432, -0.969360, 0.366211, -0.122070, -0.183106,sit
89098, -0.031982, 0.242432, -0.969360, 0.366211, -0.122070, -0.183106,sit
89118, -0.032227, 0.242798, -0.969482, 0.366211, -0.122070, -0.183106,sit
89138, -0.031738, 0.241577, -0.968872, 0.366211, -0.122070, -0.244141,sit
89158, -0.032593, 0.242432, -0.969482, 0.366211, -0.122070, -0.183106,sit
89178, -0.031738, 0.241943, -0.968994, 0.366211, -0.122070, -0.244141,sit
89198, -0.032349, 0.242188, -0.969971, 0.366211, -0.122070, -0.183106,sit
89218, -0.032227, 0.241577, -0.969238, 0.305176, -0.061035, -0.183106,sit
89238, -0.031982, 0.242798, -0.968872, 0.366211, -0.122070, -0.183106,sit
89258, -0.032471, 0.242065, -0.970337, 0.366211, -0.122070, -0.244141,sit
89278, -0.032593, 0.242432, -0.969360, 0.366211, -0.122070, -0.183106,sit
89298, -0.031738, 0.241577, -0.968872, 0.366211, -0.122070, -0.183106,sit
89318, -0.032715, 0.242310, -0.969360, 0.305176, -0.122070, -0.183106,sit
89338, -0.031982, 0.241821, -0.968994, 0.366211, -0.122070, -0.183106,sit
89358, -0.032227, 0.242065, -0.968628, 0.366211, -0.122070, -0.183106,sit
89378, -0.033569, 0.241821, -0.969482, 0.305176, -0.122070, -0.183106,sit
89398, -0.032227, 0.242432, -0.969238, 0.366211, -0.122070, -0.183106,sit
89418, -0.031738, 0.242188, -0.969116, 0.366211, -0.122070, -0.183106,sit
89438, -0.032104, 0.242188, -0.969482, 0.366211, -0.122070, -0.183106,sit
89458, -0.032227, 0.242188, -0.969360, 0.305176, -0.122070, -0.183106,sit
89478, -0.031738, 0.241821, -0.968994, 0.366211, -0.122070, -0.183106,sit
89498, -0.032104, 0.241943, -0.968994, 0.305176, -0.122070, -0.244141,sit
89518, -0.031738, 0.243042, -0.968872, 0.305176, -0.122070, -0.183106,sit
89538, -0.032227, 0.241699, -0.969482, 0.305176, -0.061035, -0.183106,sit
89558, -0.031982, 0.241943, -0.969604, 0.366211, -0.122070, -0.183106,sit
89578, -0.031494, 0.242554, -0.969360, 0.366211, -0.122070, -0.244141,sit
89598, -0.031616, 0.242676, -0.968994, 0.305176, -0.122070, -0.183106,sit
89618, -0.032959, 0.243042, -0.969849, 0.366211, -0.061035, -0.183106,sit
89638, -0.031738, 0.241943, -0.968994, 0.305176, -0.122070, -0.183106,sit
89658, -0.032471, 0.241943, -0.969971, 0.366211, -0.122070, -0.183106,sit
89678, -0.032959, 0.242188, -0.969604, 0.305176, -0.122070, -0.183106,sit
89698, -0.032104, 0.241455, -0.968872, 0.366211, -0.122070, -0.183106,sit
89718, -0.032593, 0.241333, -0.969360, 0.305176, -0.122070, -0.183106,sit
89738, -0.032593, 0.242432, -0.969360, 0.305176, -0.122070, -0.183106,sit
89758, -0.031494, 0.241943, -0.969849, 0.366211, -0.122070, -0.183106,sit
89778, -0.032715, 0.241333, -0.968628, 0.366211, -0.122070, -0.183106,sit
89798, -0.032959, 0.241699, -0.969116, 0.305176, -0.122070, -0.183106,sit
89818, -0.031494, 0.241699, -0.968872, 0.305176, -0.122070, -0.183106,sit
89838, -0.032349, 0.242188, -0.969604, 0.366211, -0.122070, -0.183106,sit
89858, -0.031982, 0.242432, -0.968506, 0.366211, -0.122070, -0.183106,sit
89878, -0.032471, 0.242432, -0.968994, 0.366211, -0.122070, -0.183106,sit
89898, -0.032593, 0.241699, -0.969238, 0.366211, -0.122070, -0.183106,sit
89918, -0.032104, 0.241821, -0.969482, 0.366211, -0.183106, -0.183106,sit
89938, -0.032227, 0.242432, -0.969116, 0.305176, -0.122070, -0.183106,sit
89958, -0.033081, 0.241089, -0.969727, 0.366211, -0.122070, -0.183106,sit
89978, -0.031738, 0.242065, -0.969727, 0.305176, -0.122070, -0.183106,sit
89998, -0.032227, 0.241943, -0.969482, 0.305176, -0.122070, -0.183106,sit
90018, -0.032227, 0.241455, -0.969238, 0.366211, -0.122070, -0.183106,sit
90038, -0.031982, 0.242676, -0.969360, 0.366211, -0.122070, -0.244141,sit
90058, -0.032593, 0.242676, -0.969604, 0.305176, -0.122070, -0.183106,sit
90078, -0.033081, 0.242310, -0.969604, 0.305176, -0.122070, -0.183106,sit
90098, -0.031738, 0.241943, -0.969482, 0.366211, -0.061035, -0.183106,sit
90118, -0.032104, 0.242432, -0.969238, 0.305176, -0.122070, -0.183106,sit
90138, -0.032593, 0.242065, -0.968994, 0.366211, -0.122070, -0.244141,sit
90158, -0.032227, 0.241577, -0.968628, 0.366211, -0.122070, -0.183106,sit
90178, -0.032227, 0.242065, -0.969116, 0.305176, -0.122070, -0.183106,sit
90198, -0.031982, 0.241821, -0.969727, 0.366211, -0.061035, -0.183106,sit
90218, -0.032837, 0.241089, -0.969238, 0.366211, -0.061035, -0.183106,sit
90238, -0.032349, 0.241699, -0.968872, 0.305176, -0.122070, -0.183106,sit
90258, -0.032593, 0.242798, -0.969360, 0.366211, -0.061035, -0.183106,sit
90278, -0.032104, 0.242065, -0.970337, 0.366211, -0.122070, -0.183106,sit
90298, -0.032593, 0.242310, -0.969482, 0.305176, -0.122070, -0.183106,sit
90318, -0.032959, 0.241455, -0.968872, 0.305176, -0.122070, -0.183106,sit
90338, -0.032837, 0.242432, -0.969116, 0.366211, -0.122070, -0.183106,sit
90358, -0.032837, 0.241333, -0.969482, 0.366211, -0.122070, -0.183106,sit
90378, -0.032349, 0.241821, -0.969238, 0.366211, -0.122070, -0.183106,sit
90398, -0.032227, 0.242310, -0.969360, 0.305176, -0.122070, -0.183106,sit
90418, -0.032837, 0.241455, -0.969604, 0.366211, -0.122070, -0.183106,sit
90438, -0.031738, 0.242188, -0.969116, 0.366211, -0.122070, -0.183106,sit
90458, -0.032104, 0.242065, -0.969238, 0.305176, -0.122070, -0.183106,sit
90478, -0.032471, 0.242554, -0.969604, 0.305176, -0.122070, -0.183106,sit
90498, -0.031250, 0.242065, -0.970215, 0.366211, -0.122070, -0.244141,sit
90518, -0.031982, 0.241455, -0.969482, 0.366211, -0.122070, -0.183106,sit
90538, -0.031738, 0.242310, -0.969482, 0.305176, -0.122070, -0.183106,sit
90558, -0.031738, 0.241821, -0.969604, 0.366211, -0.061035, -0.244141,sit
90578, -0.032104, 0.242188, -0.968750, 0.305176, -0.122070, -0.183106,sit
90598, -0.033325, 0.242188, -0.968872, 0.366211, -0.122070, -0.183106,sit
90618, -0.032715, 0.242554, -0.968628, 0.305176, -0.122070, -0.183106,sit
90638, -0.032959, 0.241943, -0.969482, 0.366211, -0.122070, -0.183106,sit
90658, -0.032104, 0.242310, -0.968872, 0.305176, -0.122070, -0.183106,sit
90678, -0.032959, 0.241699, -0.969116, 0.305176, -0.122070, -0.183106,sit
90698, -0.032715, 0.241821, -0.968994, 0.366211, -0.122070, -0.183106,sit
90718, -0.031982, 0.242310, -0.969604, 0.366211, -0.122070, -0.183106,sit
90738, -0.031616, 0.241699, -0.969727, 0.366211, -0.122070, -0.183106,sit
90758, -0.033569, 0.242432, -0.968994, 0.305176, -0.061035, -0.183106,sit
90778, -0.032227, 0.241821, -0.969727, 0.366211, -0.122070, -0.183106,sit
90798, -0.031982, 0.242432, -0.968872, 0.366211, -0.122070, -0.183106,sit
90818, -0.032349, 0.242310, -0.969238, 0.305176, -0.122070, -0.183106,sit
90838, -0.031982, 0.242065, -0.968872, 0.366211, -0.122070, -0.183106,sit
90858, -0.032104, 0.240967, -0.969360, 0.366211, -0.122070, -0.183106,sit
90878, -0.032471, 0.242310, -0.968994, 0.305176, -0.183106, -0.183106,sit
90898, -0.031738, 0.242065, -0.969116, 0.305176, -0.122070, -0.183106,sit
90918, -0.032471, 0.241821, -0.969727, 0.305176, -0.122070, -0.183106,sit
90938, -0.032593, 0.241943, -0.969360, 0.305176, -0.122070, -0.183106,sit
90958, -0.031860, 0.242676, -0.969604, 0.366211, -0.122070, -0.183106,sit
90978, -0.032715, 0.240845, -0.969238, 0.366211, -0.122070, -0.183106,sit
90998, -0.033081, 0.241699, -0.969849, 0.366211, -0.122070, -0.183106,sit
91018, -0.031372, 0.241699, -0.969849, 0.366211, -0.122070, -0.183106,sit
91038, -0.032227, 0.241943, -0.969727, 0.366211, -0.122070, -0.183106,sit
91058, -0.032471, 0.242188, -0.968750, 0.305176, -0.122070, -0.183106,sit
91078, -0.032349, 0.241943, -0.969604, 0.366211, -0.061035, -0.244141,sit
91098, -0.032593, 0.241455, -0.969604, 0.305176, -0.122070, -0.183106,sit
91118, -0.032349, 0.240967, -0.969116, 0.366211, -0.122070, -0.183106,sit
91138, -0.031494, 0.242310, -0.968262, 0.366211, -0.061035, -0.244141,sit
91158, -0.031372, 0.241577, -0.969482, 0.366211, -0.061035, -0.244141,sit
91178, -0.032471, 0.242310, -0.968506, 0.305176, -0.122070, -0.183106,sit
91198, -0.032227, 0.242065, -0.969971, 0.366211, -0.122070, -0.183106,sit
91218, -0.032227, 0.241943, -0.968872, 0.305176, -0.122070, -0.183106,sit
91238, -0.032349, 0.241943, -0.968750, 0.305176, -0.122070, -0.183106,sit
91258, -0.032349, 0.241943, -0.969727, 0.366211, -0.122070, -0.244141,sit
91278, -0.032959, 0.241821, -0.968384, 0.305176, -0.122070, -0.183106,sit
91298, -0.032104, 0.241455, -0.969482, 0.366211, -0.122070, -0.183106,sit
91318, -0.031738, 0.242676, -0.969482, 0.366211, -0.122070, -0.183106,sit
91338, -0.032715, 0.242188, -0.969116, 0.305176, -0.122070, -0.183106,sit
91358, -0.031738, 0.241943, -0.968384, 0.366211, -0.122070, -0.183106,sit
91378, -0.033081, 0.241699, -0.970093, 0.305176, -0.122070, -0.183106,sit
91398, -0.033203, 0.242065, -0.968994, 0.366211, -0.122070, -0.183106,sit
91418, -0.031128, 0.241577, -0.968994, 0.366211, -0.122070, -0.183106,sit
91438, -0.032471, 0.241577, -0.969604, 0.305176, -0.122070, -0.183106,sit
91458, -0.032959, 0.242432, -0.969482, 0.305176, -0.122070, -0.183106,sit
91478, -0.031494, 0.241699, -0.969604, 0.366211, -0.122070, -0.183106,sit
91498, -0.031738, 0.241211, -0.969238, 0.305176, -0.122070, -0.183106,sit
91518, -0.031616, 0.242920, -0.969360, 0.366211, -0.122070, -0.183106,sit
91538, -0.031860, 0.242065, -0.969482, 0.366211, -0.122070, -0.183106,sit
91558, -0.032959, 0.241821, -0.969238, 0.305176, -0.122070, -0.183106,sit
91578, -0.032349, 0.241943, -0.968994, 0.305176, -0.122070, -0.183106,sit
91598, -0.031494, 0.241699, -0.969482, 0.305176, -0.061035, -0.183106,sit
91618, -0.032471, 0.242188, -0.970093, 0.305176, -0.122070, -0.183106,sit
91638, -0.031860, 0.241699, -0.968994, 0.366211, -0.122070, -0.183106,sit
91658, -0.031372, 0.242065, -0.968872, 0.366211, -0.122070, -0.183106,sit
91678, -0.032715, 0.241821, -0.969604, 0.305176, -0.122070, -0.183106,sit
91698, -0.031372, 0.242188, -0.969116, 0.366211, -0.122070, -0.183106,sit
91718, -0.032349, 0.242065, -0.968872, 0.366211, -0.122070, -0.183106,sit
91738, -0.032104, 0.242188, -0.969604, 0.305176, -0.122070, -0.183106,sit
91758, -0.031738, 0.241821, -0.969360, 0.366211, -0.122070, -0.183106,sit
91778, -0.032227, 0.242310, -0.969116, 0.366211, -0.122070, -0.244141,sit
91798, -0.032349, 0.241577, -0.969482, 0.305176, -0.122070, -0.244141,sit
91818, -0.032227, 0.241699, -0.969238, 0.366211, -0.122070, -0.183106,sit
91838, -0.032349, 0.241943, -0.969849, 0.366211, -0.122070, -0.183106,sit
91858, -0.031982, 0.242065, -0.968628, 0.305176, -0.122070, -0.183106,sit
91878, -0.032104, 0.241699, -0.969727, 0.305176, -0.122070, -0.183106,sit
91898, -0.032593, 0.241577, -0.969238, 0.305176, -0.122070, -0.183106,sit
91918, -0.032104, 0.242798, -0.969482, 0.366211, -0.122070, -0.183106,sit
91938, -0.032104, 0.242310, -0.968872, 0.305176, -0.122070, -0.183106,sit
91958, -0.032349, 0.241699, -0.969482, 0.366211, -0.122070, -0.183106,sit
91978, -0.031860, 0.241333, -0.969116, 0.305176, -0.122070, -0.183106,sit
91998, -0.032227, 0.242188, -0.968994, 0.366211, -0.122070, -0.183106,sit
92018, -0.033081, 0.241821, -0.970215, 0.305176, -0.122070, -0.183106,sit
92038, -0.032471, 0.241699, -0.968628, 0.305176, -0.122070, -0.183106,sit
92058, -0.031616, 0.242188, -0.969482, 0.366211, -0.122070, -0.183106,sit
92078, -0.032104, 0.241333, -0.968750, 0.366211, -0.122070, -0.244141,sit
92098, -0.032593, 0.242065, -0.968506, 0.366211, -0.122070, -0.183106,sit
92118, -0.031616, 0.242310, -0.969360, 0.366211, -0.122070, -0.183106,sit
92138, -0.032959, 0.242065, -0.970337, 0.366211, -0.122070, -0.183106,sit
92158, -0.032227, 0.242920, -0.968628, 0.366211, -0.122070, -0.183106,sit
92178, -0.031982, 0.241943, -0.969849, 0.366211, -0.122070, -0.183106,sit
92198, -0.032593, 0.242188, -0.969727, 0.366211, -0.122070, -0.183106,sit
92218, -0.031494, 0.242065, -0.968994, 0.366211, -0.122070, -0.244141,sit
92238, -0.031738, 0.240601, -0.969604, 0.366211, -0.122070, -0.183106,sit
92258, -0.032837, 0.242065, -0.970215, 0.305176, -0.122070, -0.183106,sit
92278, -0.031128, 0.242676, -0.968628, 0.366211, -0.122070, -0.183106,sit
92298, -0.032104, 0.241699, -0.969360, 0.305176, -0.122070, -0.183106,sit
92318, -0.031982, 0.241211, -0.970215, 0.305176, -0.122070, -0.183106,sit
92338, -0.031372, 0.242310, -0.969604, 0.366211, -0.061035, -0.183106,sit
92358, -0.032593, 0.242188, -0.969238, 0.305176, -0.122070, -0.244141,sit
92378, -0.032104, 0.242798, -0.968262, 0.366211, -0.122070, -0.183106,sit
92398, -0.031616, 0.241943, -0.969727, 0.366211, -0.122070, -0.183106,sit
92418, -0.032959, 0.241455, -0.969727, 0.366211, -0.122070, -0.183106,sit
92438, -0.032227, 0.242188, -0.969482, 0.366211, -0.122070, -0.183106,sit
92458, -0.031128, 0.242676, -0.969360, 0.366211, -0.061035, -0.183106,sit
92478, -0.031982, 0.241821, -0.969482, 0.305176, -0.122070, -0.183106,sit
92498, -0.031738, 0.241455, -0.969360, 0.305176, -0.122070, -0.183106,sit
92518, -0.031982, 0.241943, -0.969116, 0.305176, -0.122070, -0.183106,sit
92538, -0.032837, 0.242554, -0.969971, 0.305176, -0.183106, -0.183106,sit
92558, -0.031494, 0.241455, -0.969238, 0.366211, -0.122070, -0.183106,sit
92578, -0.031738, 0.241577, -0.969604, 0.305176, -0.122070, -0.183106,sit
92598, -0.033203, 0.242676, -0.969238, 0.366211, -0.122070, -0.183106,sit
92618, -0.032227, 0.241333, -0.969604, 0.366211, -0.122070, -0.183106,sit
92638, -0.032104, 0.240967, -0.969238, 0.305176, -0.122070, -0.183106,sit
92658, -0.032349, 0.242798, -0.969604, 0.366211, -0.122070, -0.183106,sit
92678, -0.031982, 0.242432, -0.968628, 0.305176, -0.122070, -0.183106,sit
92698, -0.032104, 0.242188, -0.969238, 0.305176, -0.122070, -0.183106,sit
92718, -0.032471, 0.242554, -0.969604, 0.305176, -0.122070, -0.183106,sit
92738, -0.032104, 0.242676, -0.969238, 0.366211, -0.122070, -0.244141,sit
92758, -0.032837, 0.241455, -0.969238, 0.305176, -0.122070, -0.244141,sit
92778, -0.032227, 0.242188, -0.969727, 0.305176, -0.122070, -0.183106,sit
92798, -0.031616, 0.241455, -0.969727, 0.366211, -0.122070, -0.183106,sit
92818, -0.031982, 0.241943, -0.969360, 0.305176, -0.122070, -0.183106,sit
92838, -0.033081, 0.241089, -0.969604, 0.305176, -0.122070, -0.183106,sit
92858, -0.031860, 0.241821, -0.969360, 0.366211, -0.122070, -0.183106,sit
92878, -0.033081, 0.242554, -0.969482, 0.305176, -0.122070, -0.183106,sit
92898, -0.032959, 0.242920, -0.969116, 0.366211, -0.122070, -0.183106,sit
92918, -0.031860, 0.241699, -0.969482, 0.366211, -0.122070, -0.183106,sit
92938, -0.032837, 0.242065, -0.969849, 0.366211, -0.122070, -0.183106,sit
92958, -0.032227, 0.241455, -0.968750, 0.366211, -0.122070, -0.183106,sit
92978, -0.031494, 0.242432, -0.969604, 0.305176, -0.122070, -0.183106,sit
92998, -0.033203, 0.242065, -0.969482, 0.305176, -0.122070, -0.244141,sit
93018, -0.031860, 0.241699, -0.969604, 0.305176, -0.122070, -0.183106,sit
93038, -0.032715, 0.241821, -0.969238, 0.366211, -0.122070, -0.183106,sit
93058, -0.032959, 0.242065, -0.969360, 0.305176, -0.122070, -0.183106,sit
93078, -0.031616, 0.242798, -0.969116, 0.366211, -0.122070, -0.183106,sit
93098, -0.031494, 0.240845, -0.969604, 0.366211, -0.122070, -0.183106,sit
93118, -0.031982, 0.241943, -0.969238, 0.305176, -0.122070, -0.183106,sit
93138, -0.031494, 0.242554, -0.969604, 0.366211, -0.122070, -0.183106,sit
93158, -0.032593, 0.241455, -0.969604, 0.305176, -0.122070, -0.183106,sit
93178, -0.032471, 0.241455, -0.969971, 0.366211, -0.122070, -0.183106,sit
93198, -0.031616, 0.241821, -0.968994, 0.366211, -0.122070, -0.183106,sit
93218, -0.032471, 0.241699, -0.969238, 0.366211, -0.122070, -0.183106,sit
93238, -0.032715, 0.242065, -0.969727, 0.366211, -0.122070, -0.183106,sit
93258, -0.031616, 0.241943, -0.969360, 0.366211, -0.122070, -0.183106,sit
93278, -0.032715, 0.241089, -0.969116, 0.366211, -0.061035, -0.183106,sit
93298, -0.033081, 0.242310, -0.969727, 0.366211, -0.122070, -0.183106,sit
93318, -0.032104, 0.241211, -0.969482, 0.305176, -0.122070, -0.183106,sit
93338, -0.032593, 0.241699, -0.969360, 0.366211, -0.122070, -0.183106,sit
93358, -0.031616, 0.242432, -0.968994, 0.366211, -0.122070, -0.183106,sit
93378, -0.032715, 0.241455, -0.969360, 0.366211, -0.122070, -0.183106,sit
93398, -0.032593, 0.241943, -0.969360, 0.366211, -0.122070, -0.183106,sit
93418, -0.031738, 0.242188, -0.968750, 0.366211, -0.122070, -0.183106,sit
93438, -0.032227, 0.241455, -0.969604, 0.305176, -0.122070, -0.183106,sit
93458, -0.032593, 0.241943, -0.969971, 0.366211, -0.122070, -0.183106,sit
93478, -0.031982, 0.242310, -0.968994, 0.305176, -0.122070, -0.183106,sit
93498, -0.031494, 0.241943, -0.969482, 0.366211, -0.061035, -0.183106,sit
93518, -0.032471, 0.241821, -0.969971, 0.305176, -0.061035, -0.183106,sit
93538, -0.031982, 0.242188, -0.969116, 0.366211, -0.122070, -0.183106,sit
93558, -0.032471, 0.241821, -0.969116, 0.366211, -0.122070, -0.183106,sit
93578, -0.032227, 0.242065, -0.969238, 0.305176, -0.122070, -0.183106,sit
93598, -0.032104, 0.242065, -0.969482, 0.366211, -0.122070, -0.183106,sit
93618, -0.032471, 0.242310, -0.968872, 0.366211, -0.122070, -0.183106,sit
93638, -0.032227, 0.241577, -0.968750, 0.366211, -0.061035, -0.183106,sit
93658, -0.032349, 0.240967, -0.968750, 0.366211, -0.122070, -0.244141,sit
93678, -0.032227, 0.243164, -0.970581, 0.366211, -0.122070, -0.244141,sit
93698, -0.032471, 0.241333, -0.969482, 0.305176, -0.122070, -0.183106,sit
93718, -0.032104, 0.241821, -0.969116, 0.366211, -0.122070, -0.183106,sit
93738, -0.033081, 0.242676, -0.969238, 0.305176, -0.122070, -0.183106,sit
93758, -0.031860, 0.241943, -0.969238, 0.305176, -0.122070, -0.183106,sit
93778, -0.032471, 0.241577, -0.969360, 0.366211, -0.122070, -0.183106,sit
93798, -0.032837, 0.242065, -0.969849, 0.305176, -0.122070, -0.183106,sit
93818, -0.031982, 0.241943, -0.969482, 0.305176, -0.122070, -0.183106,sit
93838, -0.031616, 0.241577, -0.969360, 0.366211, -0.122070, -0.183106,sit
93858, -0.032471, 0.242432, -0.969238, 0.305176, -0.061035, -0.183106,sit
93878, -0.031494, 0.242432, -0.969360, 0.366211, -0.122070, -0.183106,sit
93898, -0.032471, 0.242065, -0.969971, 0.305176, -0.122070, -0.183106,sit
93918, -0.033203, 0.241455, -0.968750, 0.305176, -0.122070, -0.183106,sit
93938, -0.031494, 0.242554, -0.969727, 0.366211, -0.122070, -0.183106,sit
93958, -0.031982, 0.241333, -0.969727, 0.305176, -0.122070, -0.183106,sit
93978, -0.032349, 0.242065, -0.969604, 0.366211, -0.122070, -0.183106,sit
93998, -0.032227, 0.242188, -0.969727, 0.366211, -0.122070, -0.183106,sit
94018, -0.032104, 0.241943, -0.969971, 0.366211, -0.061035, -0.183106,sit
94038, -0.032227, 0.241333, -0.968750, 0.305176, -0.122070, -0.183106,sit
94058, -0.031616, 0.241211, -0.969971, 0.305176, -0.122070, -0.183106,sit
94078, -0.032715, 0.241943, -0.969727, 0.305176, -0.122070, -0.183106,sit
94098, -0.032593, 0.241821, -0.969482, 0.366211, -0.122070, -0.183106,sit
94118, -0.031616, 0.241455, -0.969849, 0.366211, -0.122070, -0.183106,sit
94138, -0.033569, 0.240234, -0.969116, 0.305176, -0.122070, -0.183106,sit
94158, -0.031738, 0.243042, -0.969482, 0.305176, -0.122070, -0.183106,sit
94178, -0.031250, 0.241211, -0.969238, 0.305176, -0.061035, -0.183106,sit
94198, -0.031616, 0.242554, -0.969604, 0.366211, -0.122070, -0.183106,sit
94218, -0.031860, 0.242432, -0.969238, 0.366211, -0.122070, -0.183106,sit
94238, -0.032349, 0.242310, -0.969482, 0.366211, -0.122070, -0.183106,sit
94258, -0.032715, 0.241699, -0.969360, 0.305176, -0.122070, -0.183106,sit
94278, -0.031616, 0.241577, -0.969116, 0.366211, -0.122070, -0.183106,sit
94298, -0.032471, 0.242554, -0.969482, 0.305176, -0.122070, -0.183106,sit
94318, -0.033325, 0.241699, -0.969971, 0.305176, -0.122070, -0.183106,sit
94338, -0.031860, 0.241699, -0.968994, 0.305176, -0.122070, -0.183106,sit
94358, -0.032227, 0.240601, -0.969238, 0.366211, -0.122070, -0.183106,sit
94378, -0.032471, 0.242310, -0.969238, 0.366211, -0.122070, -0.183106,sit
94398, -0.031494, 0.241577, -0.969604, 0.305176, -0.122070, -0.183106,sit
94418, -0.031616, 0.242554, -0.970581, 0.305176, -0.122070, -0.183106,sit
94438, -0.032715, 0.242554, -0.968750, 0.366211, -0.122070, -0.183106,sit
94458, -0.031860, 0.241943, -0.969849, 0.366211, -0.122070, -0.183106,sit
94478, -0.032227, 0.241943, -0.970337, 0.366211, -0.122070, -0.183106,sit
94498, -0.032593, 0.241699, -0.968384, 0.366211, -0.122070, -0.183106,sit
94518, -0.032104, 0.242188, -0.969360, 0.366211, -0.122070, -0.183106,sit
94538, -0.033447, 0.241943, -0.970215, 0.305176, -0.122070, -0.183106,sit
94558, -0.031616, 0.241943, -0.970215, 0.305176, -0.122070, -0.183106,sit
94578, -0.032227, 0.241821, -0.969727, 0.305176, -0.122070, -0.183106,sit
94598, -0.032959, 0.241943, -0.970825, 0.305176, -0.122070, -0.183106,sit
94618, -0.031494, 0.241333, -0.968506, 0.305176, -0.122070, -0.183106,sit
94638, -0.031372, 0.241943, -0.970215, 0.366211, -0.122070, -0.183106,sit
94658, -0.032227, 0.241333, -0.969849, 0.305176, -0.122070, -0.183106,sit
94678, -0.032104, 0.242310, -0.970093, 0.366211, -0.122070, -0.183106,sit
94698, -0.032104, 0.241577, -0.969604, 0.305176, -0.122070, -0.244141,sit
94718, -0.033081, 0.241577, -0.969604, 0.305176, -0.122070, -0.183106,sit
94738, -0.031250, 0.242554, -0.969360, 0.305176, -0.122070, -0.183106,sit
94758, -0.032593, 0.242554, -0.969116, 0.305176, -0.122070, -0.183106,sit
94778, -0.031860, 0.241089, -0.970337, 0.305176, -0.183106, -0.183106,sit
94798, -0.031494, 0.242065, -0.969116, 0.305176, -0.122070, -0.183106,sit
94818, -0.032104, 0.241333, -0.970459, 0.366211, -0.122070, -0.183106,sit
94838, -0.032715, 0.242310, -0.970703, 0.366211, -0.122070, -0.183106,sit
94858, -0.031372, 0.242065, -0.968872, 0.366211, -0.122070, -0.183106,sit
94878, -0.032715, 0.242188, -0.969971, 0.366211, -0.122070, -0.183106,sit
94898, -0.033081, 0.242188, -0.968872, 0.305176, -0.122070, -0.183106,sit
94918, -0.031494, 0.241333, -0.969971, 0.366211, -0.122070, -0.183106,sit
94938, -0.032471, 0.241455, -0.968872, 0.366211, -0.122070, -0.183106,sit
94958, -0.033081, 0.242065, -0.968872, 0.305176, -0.122070, -0.244141,sit
94978, -0.030884, 0.241089, -0.968994, 0.305176, -0.122070, -0.183106,sit
94998, -0.032471, 0.241699, -0.970459, 0.305176, -0.122070, -0.183106,sit
95018, -0.032227, 0.242065, -0.969360, 0.366211, -0.061035, -0.183106,sit
95038, -0.032104, 0.241699, -0.969482, 0.305176, -0.122070, -0.183106,sit
95058, -0.032715, 0.242554, -0.969604, 0.305176, -0.122070, -0.183106,sit
95078, -0.031616, 0.242554, -0.969604, 0.366211, -0.122070, -0.183106,sit
95098, -0.032104, 0.241211, -0.969604, 0.366211, -0.122070, -0.183106,sit
95118, -0.033203, 0.242554, -0.969604, 0.305176, -0.122070, -0.183106,sit
95138, -0.031616, 0.242432, -0.968750, 0.366211, -0.122070, -0.183106,sit
95158, -0.031982, 0.242065, -0.969604, 0.366211, -0.122070, -0.183106,sit
95178, -0.032349, 0.241821, -0.969116, 0.366211, -0.122070, -0.183106,sit
95198, -0.031860, 0.241943, -0.969727, 0.366211, -0.122070, -0.244141,sit
95218, -0.032715, 0.242065, -0.970215, 0.305176, -0.122070, -0.244141,sit
95238, -0.032593, 0.242065, -0.969116, 0.366211, -0.122070, -0.183106,sit
95258, -0.031982, 0.242065, -0.969360, 0.305176, -0.122070, -0.183106,sit
95278, -0.031860, 0.241699, -0.969482, 0.305176, -0.122070, -0.183106,sit
95298, -0.032837, 0.242432, -0.969971, 0.305176, -0.122070, -0.183106,sit
95318, -0.031250, 0.241943, -0.968140, 0.305176, -0.122070, -0.183106,sit
95338, -0.032227, 0.242554, -0.969360, 0.366211, -0.122070, -0.244141,sit
95358, -0.032227, 0.242432, -0.969604, 0.305176, -0.122070, -0.183106,sit
95378, -0.030884, 0.241943, -0.969360, 0.305176, -0.122070, -0.183106,sit
95398, -0.031738, 0.241943, -0.969971, 0.366211, -0.122070, -0.183106,sit
95418, -0.032104, 0.242432, -0.968872, 0.305176, -0.122070, -0.183106,sit
95438, -0.031494, 0.241211, -0.969604, 0.366211, -0.122070, -0.183106,sit
95458, -0.032104, 0.241943, -0.969849, 0.366211, -0.122070, -0.183106,sit
95478, -0.032959, 0.241699, -0.969727, 0.305176, -0.122070, -0.183106,sit
95498, -0.030884, 0.241821, -0.969116, 0.305176, -0.122070, -0.183106,sit
95518, -0.031982, 0.241455, -0.970459, 0.244141, -0.122070, -0.183106,sit
95538, -0.032349, 0.242798, -0.969482, 0.366211, -0.122070, -0.183106,sit
95558, -0.032104, 0.241699, -0.969360, 0.366211, -0.122070, -0.183106,sit
95578, -0.032471, 0.242310, -0.969849, 0.305176, -0.122070, -0.244141,sit
95598, -0.032104, 0.241577, -0.970093, 0.305176, -0.122070, -0.183106,sit
95618, -0.031494, 0.241821, -0.969116, 0.366211, -0.122070, -0.183106,sit
95638, -0.032593, 0.241821, -0.969604, 0.305176, -0.061035, -0.183106,sit
95658, -0.031494, 0.241943, -0.970093, 0.366211, -0.122070, -0.183106,sit
95678, -0.031372, 0.241089, -0.969604, 0.366211, -0.122070, -0.183106,sit
95698, -0.032837, 0.242554, -0.969849, 0.305176, -0.122070, -0.183106,sit
95718, -0.031250, 0.241089, -0.969116, 0.366211, -0.061035, -0.183106,sit
95738, -0.031372, 0.241211, -0.970093, 0.366211, -0.122070, -0.183106,sit
95758, -0.032349, 0.242065, -0.969482, 0.366211, -0.122070, -0.183106,sit
95778, -0.031494, 0.241821, -0.968872, 0.366211, -0.122070, -0.183106,sit
95798, -0.033081, 0.241455, -0.969360, 0.366211, -0.061035, -0.183106,sit
95818, -0.031982, 0.241821, -0.970337, 0.305176, -0.122070, -0.183106,sit
95838, -0.031738, 0.242554, -0.969238, 0.366211, -0.122070, -0.244141,sit
95858, -0.031982, 0.240601, -0.969238, 0.305176, -0.122070, -0.183106,sit
95878, -0.031982, 0.241821, -0.969727, 0.366211, -0.122070, -0.183106,sit
95898, -0.032349, 0.240479, -0.969849, 0.366211, -0.122070, -0.183106,sit
95918, -0.032471, 0.241577, -0.969849, 0.305176, -0.122070, -0.183106,sit
95938, -0.032349, 0.243042, -0.969971, 0.366211, -0.122070, -0.183106,sit
95958, -0.032104, 0.242065, -0.969238, 0.366211, -0.122070, -0.183106,sit
95978, -0.032715, 0.241943, -0.970093, 0.305176, -0.122070, -0.183106,sit
95998, -0.032349, 0.241699, -0.968994, 0.366211, -0.122070, -0.183106,sit
96018, -0.031494, 0.241211, -0.969604, 0.305176, -0.122070, -0.183106,sit
96038, -0.032715, 0.241333, -0.969604, 0.366211, -0.061035, -0.183106,sit
96058, -0.032349, 0.242188, -0.968994, 0.366211, -0.122070, -0.183106,sit
96078, -0.032227, 0.241211, -0.969238, 0.366211, -0.122070, -0.244141,sit
96098, -0.032471, 0.241699, -0.970215, 0.366211, -0.122070, -0.183106,sit
96118, -0.031738, 0.241699, -0.969482, 0.305176, -0.122070, -0.183106,sit
96138, -0.031494, 0.241455, -0.969971, 0.305176, -0.122070, -0.244141,sit
96158, -0.033203, 0.242188, -0.970215, 0.366211, -0.122070, -0.183106,sit
96178, -0.032471, 0.242188, -0.969849, 0.366211, -0.122070, -0.183106,sit
96198, -0.030762, 0.241333, -0.970093, 0.366211, -0.122070, -0.183106,sit
96218, -0.031982, 0.242065, -0.968628, 0.366211, -0.122070, -0.244141,sit
96238, -0.031494, 0.240967, -0.969849, 0.305176, -0.122070, -0.183106,sit
96258, -0.031738, 0.241699, -0.969727, 0.366211, -0.122070, -0.183106,sit
96278, -0.031860, 0.242676, -0.969971, 0.366211, -0.122070, -0.244141,sit
96298, -0.032471, 0.241577, -0.968872, 0.366211, -0.122070, -0.244141,sit
96318, -0.032227, 0.241211, -0.969727, 0.305176, -0.122070, -0.183106,sit
96338, -0.032593, 0.242310, -0.969727, 0.366211, -0.122070, -0.183106,sit
96358, -0.031738, 0.242065, -0.969360, 0.366211, -0.122070, -0.183106,sit
96378, -0.032715, 0.241333, -0.968994, 0.305176, -0.122070, -0.183106,sit
