Sequence No,Buffer_Size,ax,ay,az,gx,gy,gz,mx,my,mz
526,100,0.0357666,0.8485107,0.3056641,34.09424,-17.57797,11.6713,-0.3496094,-0.111084,-0.8216553
527,100,-0.2839355,1.349487,0.03295898,151.3007,24.34448,-16.41159,-0.3533936,-0.1573486,-0.7321777
528,100,-0.08203125,0.890625,0.1564941,-125.8795,24.65851,28.03055,-0.3533936,-0.1573486,-0.7321777
529,100,0.06811523,1.067383,0.1362305,27.99317,-36.71112,-66.99966,-0.3533936,-0.1573486,-0.7321777
530,100,-0.03271484,1.210449,0.02355957,122.5748,41.41403,-41.33926,-0.3533936,-0.1573486,-0.7321777
531,100,0.04675293,0.552002,0.2747803,-126.044,30.24368,28.19504,-0.3533936,-0.1573486,-0.7321777
532,100,0.3105469,1.4021,0.1253662,10.51239,-88.4282,3.170166,-0.3533936,-0.1573486,-0.7321777
533,100,0.3468018,1.089844,0.06921387,3.715973,-5.996399,6.39267,-0.369751,-0.1448975,-0.7009277
534,100,-0.1224365,0.6608887,0.09472656,-0.01495361,21.922,-15.5069,-0.369751,-0.1448975,-0.7009277
535,100,-0.1628418,1.04187,0.08068848,-77.24289,11.37222,3.962708,-0.369751,-0.1448975,-0.7009277
536,100,-0.1014404,0.8616943,-0.03918457,-8.845062,45.07767,16.97983,-0.369751,-0.1448975,-0.7009277
537,100,-0.07836914,1.232422,0.1391602,173.3572,-61.01075,-1.846771,-0.369751,-0.1448975,-0.7009277
538,100,-0.1580811,1.237427,-0.04211426,-127.8758,49.19739,18.06396,-0.369751,-0.1448975,-0.7009277
539,100,0.4920654,1.414551,0.2506104,3.424378,-45.59357,-37.51862,-0.3492432,-0.1583252,-0.7716064
540,100,0.2232666,1.108765,-0.1660156,50.30396,-3.753357,-6.631928,-0.3492432,-0.1583252,-0.7716064
541,100,-0.0201416,0.5552979,0.3317871,-1.936493,16.68823,5.091705,-0.3492432,-0.1583252,-0.7716064
542,100,0.001586914,0.6175537,-0.1552734,-56.09101,-10.72922,-1.495361,-0.3492432,-0.1583252,-0.7716064
543,100,0.1314697,1.052612,0.06420898,-18.42285,-1.854248,26.52771,-0.3492432,-0.1583252,-0.7716064
544,100,0.1013184,0.9124756,0.03259277,171.7348,-68.56979,-44.57673,-0.3492432,-0.1583252,-0.7716064
545,100,-0.1416016,1.281738,-0.2189941,-108.0548,45.32441,16.3443,-0.3511963,-0.08581543,-0.8735352
546,100,0.01782227,0.7918701,-0.09240723,59.54529,13.90686,-34.50546,-0.3511963,-0.08581543,-0.8735352
547,100,0.04223633,1.011475,-0.2369385,97.14616,14.87137,-30.95398,-0.3511963,-0.08581543,-0.8735352
548,100,0.0324707,0.5324707,0.2976074,-63.35099,15.34241,24.74076,-0.3511963,-0.08581543,-0.8735352
549,100,0.2215576,0.7670898,-0.1297607,-21.62292,34.24377,10.20584,-0.3511963,-0.08581543,-0.8735352
550,100,0.1491699,1.073364,0.02441406,-1.637421,9.615173,22107,-0.3511963,-0.08581543,-0.8735352
551,100,-0.03930664,0.6229248,0.04467773,103.4715,-98.46207,-31.20072,-0.3511963,-0.08581543,-0.8735352
552,100,-0.08984375,1.366089,0.007202148,-103.8828,8.396454,3.925324,-0.3691406,-0.1148682,-0.8342285
553,100,0.05358887,0.7214355,-0.01733398,42.43835,51.33576,-7.745972,-0.3691406,-0.1148682,-0.8342285
554,100,-0.1837158,1.172119,-0.02624512,105.079,5.50293,-17.65274,-0.3691406,-0.1148682,-0.8342285
555,100,0.08996582,0.5863037,0.2250977,-101.8416,9.181519,24.03046,-0.3691406,-0.1148682,-0.8342285
556,100,0.3190918,1.193359,0.1712646,-11.62644,-71.83716,25.27909,-0.3691406,-0.1148682,-0.8342285
557,100,0.3405762,0.9936523,-0.1075439,4.859924,-29.57077,6.474915,-0.3691406,-0.1148682,-0.8342285
558,100,-0.08178711,0.5866699,0.09594727,37.95975,-27.18567,-25.72769,-0.3516846,-0.1723633,-0.8032227
559,100,0.01013184,1.510986,-0.07580566,-109.3259,16.99478,21.27899,-0.3516846,-0.1723633,-0.8032227
560,100,-0.1135254,0.8013916,-0.1052246,3.843079,42.79724,-7.708588,-0.3516846,-0.1723633,-0.8032227
561,100,-0.01965332,1.131226,0.03869629,107.5389,-32.62131,-31.49231,-0.3516846,-0.1723633,-0.8032227
562,100,-0.07446289,0.7565918,0.01818848,-133.8947,36.47934,46.14685,-0.3516846,-0.1723633,-0.8032227
563,100,0.3093262,1.488281,0.2901611,-63.62763,-81.71402,2.654266,-0.3516846,-0.1723633,-0.8032227
564,100,0.46521,0.9887695,-0.0645752,23.99307,-11.52176,1.734619,-0.310791,-0.1938477,-0.776123
565,100,-0.03356934,0.6859131,0.2727051,10.89371,-5.450592,-0.7701111,-0.310791,-0.1938477,-0.776123
566,100,-0.005493164,0.8494873,0.05517578,-78.43918,0,1.510315,-0.310791,-0.1938477,-0.776123
567,100,0.2119141,1.002319,0.06286621,5.615082,36.62888,32.31476,-0.310791,-0.1938477,-0.776123
568,100,0.06945801,1.163818,-0.1346436,163.3234,-28.55393,-22.68463,-0.310791,-0.1938477,-0.776123
569,100,-0.09814453,0.8798828,0.09313965,-116.7803,45.18982,46.81977,-0.310791,-0.1938477,-0.776123
570,100,0.7515869,1.164429,-0.06567383,-3.611298,-101.4603,-11.25259,-0.3352051,-0.1778564,-0.7678223
571,100,0.2821045,1.059326,0.02722168,-21.51077,-22.13883,4.373932,-0.3352051,-0.1778564,-0.7678223
572,100,0.18396,0.50354,0.3701172,-8.202057,21.4061,8.19458,-0.3352051,-0.1778564,-0.7678223
573,100,0.03344727,0.7749023,0.01037598,-53.54142,20.81543,14.25079,-0.3352051,-0.1778564,-0.7678223
574,100,0.1416016,0.9832764,0.04724121,-6.57959,16.77795,20.17242,-0.3352051,-0.1778564,-0.7678223
575,100,-0.02319336,1.052612,0.2198486,153.3194,-60.62943,-21.44348,-0.3352051,-0.1778564,-0.7678223
576,100,0.001220703,1.060425,-0.1948242,-88.4282,19.49951,15.73868,-0.359375,-0.1556396,-0.8077393
577,100,0.3375244,1.033081,0.1246338,31.41754,-12.57599,-61.65375,-0.359375,-0.1556396,-0.8077393
578,100,0.3178711,1.094238,-0.08459473,22.25846,-20.81543,-12.40402,-0.359375,-0.1556396,-0.8077393
579,100,0.2028809,0.5024414,0.3312988,-20.90515,14.0564,6.609498,-0.359375,-0.1556396,-0.8077393
580,100,0.2687988,0.9898682,0.0690918,-13.47321,11.25259,14.75922,-0.359375,-0.1556396,-0.8077393
581,100,0.197876,1.04187,-0.05993652,-10.75912,-3.551483,28.03803,-0.359375,-0.1556396,-0.8077393
582,100,0.0222168,0.6362305,0.1385498,54.30405,-20.63599,-25.72769,-0.3447266,-0.1405029,-0.861084
583,100,0.03649902,1.192627,0.02160645,-92.77222,7.738495,13.21152,-0.3447266,-0.1405029,-0.861084
584,100,0.06164551,0.7755127,-0.1710205,43.40286,19.58176,-61.6687,-0.3447266,-0.1405029,-0.861084
585,100,0.1026611,1.170044,0.005493164,55.3209,-14.93118,-19.84344,-0.3447266,-0.1405029,-0.861084
586,100,0.208252,0.4589844,0.3553467,-33.22693,17.39105,9.046936,-0.3447266,-0.1405029,-0.861084
587,100,0.274292,1.020996,-0.02819824,-25.0473,40.69626,16.73309,-0.3447266,-0.1405029,-0.861084
588,100,0.2644043,0.979248,0.08764648,13.75733,18.46024,35.72418,-0.3447266,-0.1405029,-0.861084
589,100,-0.1295166,1.40332,0.06005859,139.9509,-41.51871,-12.53861,-0.3129883,-0.197876,-0.7729492
590,100,-0.05822754,0.9261475,0.04858398,-116.5036,60.29297,37.14478,-0.3129883,-0.197876,-0.7729492
591,100,0.4842529,1.105469,-0.1199951,-41.55609,-82.37198,-4.000092,-0.3129883,-0.197876,-0.7729492
592,100,0.392334,1.14978,0.01647949,30.9166,9.144135,-11.33484,-0.3129883,-0.197876,-0.7729492
593,100,-0.01538086,0.5706787,0.1889648,12.68814,-5.742188,-6.198273,-0.3129883,-0.197876,-0.7729492
594,100,0.03735352,0.8620605,0.1072998,-71.44836,5.809479,16.59103,-0.3129883,-0.197876,-0.7729492
595,100,0.2772217,0.9921875,0.03295898,-1.861725,14.87885,29.57825,-0.3121338,-0.196167,-0.7453613
596,100,0.2127686,0.7401123,0.2075195,141.2294,-46.16928,-46.73005,-0.3121338,-0.196167,-0.7453613
597,100,0.06469727,1.118408,-0.1488037,-92.24137,37.62329,32.6886,-0.3121338,-0.196167,-0.7453613
598,100,0.4362793,0.9886475,-0.352417,13.45078,-40.25513,-55.29099,-0.3121338,-0.196167,-0.7453613
599,100,0.2529297,1.106689,-0.01818848,54.68537,3.005677,-16.58356,-0.3121338,-0.196167,-0.7453613
600,100,0.2078857,0.5524902,0.2519531,-19.16306,35.90363,3.222504,-0.3121338,-0.196167,-0.7453613
601,100,0.3568115,1.146362,0.03222656,-52.86103,28.27728,12.77039,-0.3182373,-0.1848145,-0.8098145
602,100,0.4145508,0.9366455,0.008178711,16.07513,10.31052,26.68472,-0.3182373,-0.1848145,-0.8098145
603,100,-0.1567383,1.450562,0.1860352,115.9653,4.059906,-12.72553,-0.3182373,-0.1848145,-0.8098145
604,100,0.06347656,0.8492432,0.06237793,-98.0658,65.90057,41.87759,-0.3182373,-0.1848145,-0.8098145
605,100,0.618042,0.8950195,-0.2451172,-16.32187,-102.1182,0.9645082,-0.3182373,-0.1848145,-0.8098145
606,100,0.3121338,1.072998,0.06213379,1.315918,-19.00604,5.839386,-0.3182373,-0.1848145,-0.8098145
607,100,-0.04333496,0.7329102,0.2114258,10.04883,-17.23404,-3.229981,-0.3155518,-0.2142334,-0.7796631
608,100,-0.02966309,1.083008,0.1651611,-81.3028,-0.5158997,9.420776,-0.3155518,-0.2142334,-0.7796631
609,100,-0.08044434,0.9121094,-0.09887695,5.17395,19.8584,9.772186,-0.3155518,-0.2142334,-0.7796631
610,100,0.04870605,1.194824,-0.06860352,144.1379,-45.70572,-5.659943,-0.3155518,-0.2142334,-0.7796631
611,100,0.06848145,0.9699707,-0.1015625,-80.95139,51.73951,23.36502,-0.3155518,-0.2142334,-0.7796631
612,100,0.5114746,1.018921,-0.3370361,-27.96326,-31.29044,-68.24829,-0.3155518,-0.2142334,-0.7796631
613,100,0.4005127,1.089355,0.09375,33.53348,-5.33844,-6.676789,-0.296875,-0.260376,-0.6915283
614,100,0.1983643,0.3585205,0.4404297,-11.22269,24.05289,-3.289795,-0.296875,-0.260376,-0.6915283
615,100,0.06970215,0.895874,0.2678223,-64.21829,21.03973,17.27142,-0.296875,-0.260376,-0.6915283
616,100,0.07629395,0.9476318,0.0279541,-7.289887,13.42087,17.24899,-0.296875,-0.260376,-0.6915283
617,100,0.1676025,0.748291,0.2687988,140.6238,-93.0713,-41.15982,-0.296875,-0.260376,-0.6915283
618,100,0.008544922,0.7429199,0.2009277,-91.54603,61.25,53.47412,-0.296875,-0.260376,-0.6915283
619,100,0.5126953,1.392578,0.07775879,-42.22153,-134.9339,6.078644,-0.3175049,-0.1994629,-0.7553711
620,100,0.4233398,0.9980469,0.01538086,-10.70679,-4.680481,6.706696,-0.3175049,-0.1994629,-0.7553711
621,100,-0.1280518,0.5437012,0.07019043,17.46582,-65.57159,-12.80029,-0.3175049,-0.1994629,-0.7553711
622,100,0.1861572,1.401855,-0.04919434,-104.0024,9.480591,22.22107,-0.3175049,-0.1994629,-0.7553711
623,100,0.345459,0.9154053,-0.2264404,23.87345,-26.75202,-66.45386,-0.3175049,-0.1994629,-0.7553711
624,100,0.3365479,1.173218,0.07458496,28.96515,15.62653,-13.28629,-0.3175049,-0.1994629,-0.7553711
625,100,-0.0144043,0.588623,0.2908936,17.62283,14.39285,-4.717865,-0.3155518,-0.1729736,-0.8272705
626,100,0.1525879,0.795166,0.008666992,-65.07065,12.51618,16.23215,-0.3155518,-0.1729736,-0.8272705
627,100,0.260376,0.8956299,0.1398926,31.78391,30.46799,33.68301,-0.3155518,-0.1729736,-0.8272705
628,100,0.02868652,1.34668,0.02661133,94.34235,-64.83139,-29.2717,-0.3155518,-0.1729736,-0.8272705
629,100,0.03942871,1.003296,-0.02087402,-87.4263,69.83337,31.02127,-0.3155518,-0.1729736,-0.8272705
630,100,0.7272949,1.727417,0.3259277,-14.28818,-40.59906,-40.38223,-0.3155518,-0.1729736,-0.8272705
631,100,0.5585938,1.044189,0.1716309,-21.20422,-9.817047,3.53653,-0.2807617,-0.2248535,-0.7529297
632,100,-0.04711914,0.9039307,-0.1497803,36.77094,-24.51645,-25.02487,-0.2807617,-0.2248535,-0.7529297
633,100,0.2078857,1.098999,-0.1741943,-91.28434,37.15973,27.29782,-0.2807617,-0.2248535,-0.7529297
634,100,0.3123779,0.8653564,-0.1849365,-4.172058,-63.93418,-63.44071,-0.2807617,-0.2248535,-0.7529297
635,100,0.3500977,1.106567,-0.046875,0.0971985,-13.00217,-0.465637,-0.2807617,-0.2248535,-0.7529297
636,100,0.1203613,0.4219971,0.2800293,33.27927,-11.85074,-1.121521,-0.2807617,-0.2248535,-0.7529297
637,100,0.0682373,0.8778076,0.1673584,-73.69141,21.71265,3162689,-0.2749023,-0.2460938,-0.7468262
638,100,0.05786133,0.7674561,0.06005859,23.23044,37.69058,-0.7177735,-0.2749023,-0.2460938,-0.7468262
639,100,0.234375,1.11731,-0.2250977,82.00562,-51.95633,-38.10928,-0.2749023,-0.2460938,-0.7468262
641,100,0.3734131,0.9680176,0.1264648,-29.55582,4.740295,9.630127,-0.2749023,-0.2460938,-0.7468262
642,100,0.3134766,0.9559326,-0.02539063,22.87903,1.94397,21.63788,-0.2749023,-0.2460938,-0.7468262
643,100,0.3632813,1.204956,0.1236572,181.9182,-49.33945,-24.00803,-0.2749023,-0.2460938,-0.7468262
644,100,0.02722168,1.110352,-0.1682129,-95.17228,77.13821,17.42096,-0.309082,-0.19104,-0.829834
645,100,0.7580566,1.153198,-0.0177002,-55.28351,-116.1447,-5.914155,-0.309082,-0.19104,-0.829834
646,100,0.4794922,1.024048,-0.07287598,41.39908,8.17215,-4.11972,-0.309082,-0.19104,-0.829834
647,100,-0.3837891,0.6784668,0.07873535,-1.906586,-16.763,1.323395,-0.309082,-0.19104,-0.829834
648,100,0.1843262,1.215332,-0.01452637,-77.11578,47.94876,14.67697,-0.309082,-0.19104,-0.829834
650,100,0.2121582,1.230957,0.000976563,132.646,-106.8062,9,-0.2907715,-0.2495117,-0.77771
651,100,0.06811523,0.6529541,0.2630615,-113.8867,64.10614,11.52924,-0.2907715,-0.2495117,-0.77771
652,100,0.5670166,1.026001,0.03137207,-33.18954,-22.87155,6,-0.2907715,-0.2495117,-0.77771
653,100,0.3937988,1.0625,0.008056641,-2.220612,-7.125397,19.49951,-0.2907715,-0.2495117,-0.77771
654,100,0.3157959,0.597168,0.1971436,70.39413,-85.40009,-29.48853,-0.2907715,-0.2495117,-0.77771
655,100,0.2973633,1.436401,-0.1715088,-99.93501,29.7876,25.27909,-0.2907715,-0.2495117,-0.77771
656,100,0.2108154,0.8293457,-0.02832031,71.24649,51.74698,2.915955,-0.2757568,-0.2658691,-0.7141113
657,100,0.3839111,1.080688,-0.05126953,129.7675,-45.34684,-30.36331,-0.2757568,-0.2658691,-0.7141113
659,100,0.5257568,0.8017578,-0.04370117,-38.92426,7.274933,34.62509,-0.2757568,-0.2658691,-0.7141113
660,100,0.3526611,0.9967041,0.09838867,-5.241241,31.14838,15.45456,-0.2757568,-0.2658691,-0.7141113
661,100,0.4678955,0.921875,0.385376,126.0739,-111.1054,-38.28873,-0.2757568,-0.2658691,-0.7141113
662,100,-0.02856445,1.033325,-0.09509277,-94.68629,94.17039,20.5687,-0.2757568,-0.2658691,-0.7141113
663,100,0.2319336,0.9747314,0.06176758,15.32745,-27.63428,-60.92102,-0.3076172,-0.2122803,-0.7875977
664,100,0.2562256,1.127441,-0.07373047,36.96533,29.12964,-0.73139,-0.3076172,-0.2122803,-0.7875977
665,100,0.2368164,0.319458,0.5162354,15.56671,33.73535,0.7626343,-0.3076172,-0.2122803,-0.7875977
666,100,-0.02246094,0.8840332,0.0333252,-71.45584,8.463745,20.44907,-0.3076172,-0.2122803,-0.7875977
667,100,0.1077881,0.8979492,-0.03625488,57.44431,43.89633,26,-0.3076172,-0.2122803,-0.7875977
668,100,-0.1657715,1.44458,0.1677246,119.128,-99.67332,-4053925,-0.3076172,-0.2122803,-0.7875977
669,100,-0.09228516,0.7279053,0.1508789,-107.1576,40.6813,18.52753,-0.3686523,-0.1206055,-0.8024902
670,100,0.8735352,1.217529,-0.1226807,-43.6496,-113.8643,15.20783,-0.3686523,-0.1206055,-0.8024902
671,100,0.4060059,1.033813,0.05029297,-15.84335,-16.29944,8.620758,-0.3686523,-0.1206055,-0.8024902
672,100,0.01623535,0.4128418,0.1688232,50.65537,-121.4757,24.80057,-0.3686523,-0.1206055,-0.8024902
673,100,0.2463379,1.274902,-0.1280518,-115.1354,37.63824,12.54608,-0.3686523,-0.1206055,-0.8024902
674,100,0.007324219,0.8208008,-0.144043,26.5651,15.14053,-34.46808,-0.3686523,-0.1206055,-0.8024902
675,100,0.4042969,0.8059082,-0.5233154,63.78464,16.75552,-19.4696,-0.3269043,-0.206665,-0.8186035
676,100,0.1069336,0.3581543,0.4760742,-67.21649,17.18918,12.09,-0.3269043,-0.206665,-0.8186035
677,100,0.322998,1.10437,-0.03186035,-60.20325,9.24881,17.51816,-0.3269043,-0.206665,-0.8186035
678,100,0.4121094,1.050659,0.03613281,9.480591,-15.76111,2.83048,-0.3269043,-0.206665,-0.8186035
679,100,0.07177734,0.5292969,0.2930908,99.68079,-91.68809,-39.43268,-0.3269043,-0.206665,-0.8186035
680,100,-0.01696777,1.027466,-0.1936035,-88.5254,57.11533,4.52744,-0.3269043,-0.206665,-0.8186035
681,100,0.1154785,0.8594971,-0.009521484,55.94147,-23.694,8.08731,-0.3269043,-0.206665,-0.8186035
682,100,0.3747559,1.11731,-0.008178711,25.16693,12.80777,-8.321686,-0.3043213,-0.2297363,-0.7785645
683,100,0.03295898,0.5821533,0.3387451,22.13135,19.4397,0.233765,-0.3043213,-0.2297363,-0.7785645
684,100,0.04211426,0.8011475,0.1552734,-49.48151,26.4978,8.306732,-0.3043213,-0.2297363,-0.7785645
685,100,0.009765625,0.9787598,-0.1228027,4.478607,25.21179,8.605804,-0.3043213,-0.2297363,-0.7785645
686,100,0.04736328,1.143311,0.03955078,164.7365,-37.63824,-12.24701,-0.3043213,-0.2297363,-0.7785645
687,100,-0.000488281,0.8969727,0.03259277,-115.7709,47.23099,33.50357,-0.3043213,-0.2297363,-0.7785645
688,100,0.7250977,1.541626,0.2869873,20.14252,-5.428162,-25.30152,-0.3156738,-0.2116699,-0.7775879
689,100,0.3013916,1.058472,0.1536865,-19.40979,-22.92389,11.76849,-0.3156738,-0.2116699,-0.7775879
690,100,-0.1741943,0.5170898,0.1109619,16.3443,-38.685,-7.372132,-0.3156738,-0.2116699,-0.7775879
691,100,0.2576904,1.306763,-0.02319336,-121.371,30.5278,1.532745,-0.3156738,-0.2116699,-0.7775879
692,100,-0.05273438,0.9829102,-0.0682373,25.22675,-1.846771,-49.04786,-0.3156738,-0.2116699,-0.7775879
693,100,0.175293,1.073853,-0.01721191,53.98255,7.947846,-25.1445,-0.3156738,-0.2116699,-0.7775879
694,100,0.1175537,0.3657227,0.5418701,10.16846,20.50888,12.23953,-0.355835,-0.1586914,-0.8376465
695,100,0.1251221,1.309692,-0.1367188,-95.3592,16.77795,-710462,-0.355835,-0.1586914,-0.8376465
696,100,-0.003173828,0.9169922,0.5327148,50.28153,-2.243042,-21.83975,-0.355835,-0.1586914,-0.8376465
697,100,0.2872314,1.446045,0.04199219,136.691,24.6286,-32.21756,-0.355835,-0.1586914,-0.8376465
698,100,0.09680176,0.6542969,0.2412109,-72.46521,11.68625,0.73526,-0.355835,-0.1586914,-0.8376465
699,100,-0.05627441,1.047974,0.24646,14.93118,27.02866,15.3125,-0.355835,-0.1586914,-0.8376465
700,100,0.3031006,1.079834,0.0456543,6.071167,4.456177,21.95938,-0.355835,-0.1586914,-0.8376465
702,100,-0.01660156,0.8215332,0.2041016,-94.81339,30.23621,31.99326,-0.3105469,-0.2243652,-0.7565918
703,100,0.3479004,0.8901367,0.01757813,-0.5532837,37.89246,36.7186,-0.3105469,-0.2243652,-0.7565918
704,100,0.4227295,0.9742432,0.05358887,2.138367,-11.04324,13.27133,-0.3105469,-0.2243652,-0.7565918
705,100,0.005981445,0.7595215,0.01269531,19.4696,-44.46457,-24.44916,-0.3105469,-0.2243652,-0.7565918
706,100,0.1546631,1.063721,0.06970215,-90.41703,47.50016,-1.9664,-0.3105469,-0.2243652,-0.7565918
707,100,1.136108,1.085815,-0.03210449,-94.26011,-130.0291,18.34061,-0.3007813,-0.2255859,-0.7773438
708,100,0.3883057,0.9654541,0.05285645,-4.523468,-3.760834,18.05649,-0.3007813,-0.2255859,-0.7773438
710,100,0.2424316,1.105225,-0.2561035,-135.405,-0.2542114,-8.673096,-0.3007813,-0.2255859,-0.7773438
711,100,0.3980713,1.11731,-0.08215332,-69.72122,-72.27829,-54.63303,-0.3007813,-0.2255859,-0.7773438
712,100,0.4025879,0.9046631,-0.1376953,-1.435547,-18.06396,5.959015,-0.3007813,-0.2255859,-0.7773438
713,100,0.3153076,0.9804688,0.3746338,126.844,-66.86508,-3.3616,-0.3994141,-0.1861572,-0.7593994
714,100,0.01831055,1.027344,0.1541748,-99.44901,65.27252,5.644989,-0.3994141,-0.1861572,-0.7593994
715,100,0.7119141,1.121094,-0.1134033,-56.96579,-106.4174,-11.5741,-0.3994141,-0.1861572,-0.7593994
716,100,0.2978516,1.043945,0.03442383,11.25259,1.794434,6.1835,-0.3994141,-0.1861572,-0.7593994
717,100,-0.1280518,0.6757813,0.1768799,43.57483,-43.10379,-22.82669,-0.3994141,-0.1861572,-0.7593994
718,100,0.2840576,0.9412842,-0.08520508,-123.629,48.55439,9.43573,-0.3994141,-0.1861572,-0.7593994
719,100,0.1101074,0.8588867,-0.03967285,24.47907,18.28079,-58.36396,-0.3994141,-0.1861572,-0.7593994
720,100,0.3234863,1.105835,-0.05383301,29.70535,-8.680573,-9.959106,-0.3062744,-0.2476807,-0.7567139
721,100,0.1938477,0.494873,0.1043701,22.44538,-26.08658,-117981,-0.3062744,-0.2476807,-0.7567139
722,100,0.04919434,1.52478,-0.119751,-135.4723,2.871094,4.30017,-0.3062744,-0.2476807,-0.7567139
724,100,0.1854248,1.164795,0.02160645,96.14426,-32.34467,-18.18359,-0.3062744,-0.2476807,-0.7567139
725,100,0.02124023,0.5196533,0.3068848,-67.80716,22.77435,0.822632,-0.3062744,-0.2476807,-0.7567139
726,100,0.1849365,0.7508545,0.0814209,-20.03036,51.18622,-2.631836,-0.3104248,-0.21521,-0.8168945
727,100,0.4462891,0.9865723,0.0267334,-3.18512,-4.194489,34.09,-0.3104248,-0.21521,-0.8168945
728,100,0.3266602,1.541626,0.02490234,150.9268,-20.06775,-12.25449,-0.3104248,-0.21521,-0.8168945
729,100,-0.09228516,0.7626953,0.2664795,-109.3633,21.16684,14.56482,-0.3104248,-0.21521,-0.8168945
730,100,0.6320801,0.7702637,-0.3342285,-22.45285,-53.5788,40.93552,-0.3104248,-0.21521,-0.8168945
731,100,0.5667725,1.013062,-0.015625,1.443024,-5.816956,193317,-0.3104248,-0.21521,-0.8168945
732,100,0.2617188,0.7286377,0.2387695,146.523,-105.6174,-45.13001,-0.3323975,-0.1690674,-0.8476563
733,100,0.02099609,1.008911,-0.02636719,-112.4362,68.98102,3.977661,-0.3323975,-0.1690674,-0.8476563
734,100,0.05090332,0.871582,-0.1806641,33.6232,-1.084137,-20712,-0.3323975,-0.1690674,-0.8476563
735,100,0.3485107,1.132568,-0.02233887,47.18613,-24.14261,-12.41898,-0.3323975,-0.1690674,-0.8476563
736,100,0.1748047,0.5058594,0.319458,30.9166,-8.553467,-1274048,-0.3323975,-0.1690674,-0.8476563
737,100,-0.001953125,1.134033,0.08642578,-95.53864,-3.072968,14.75174,-0.3323975,-0.1690674,-0.8476563
738,100,-0.08679199,0.9428711,-0.09240723,-8.463745,13.37601,16.71814,-0.3323975,-0.1690674,-0.8476563
739,100,-0.04406738,1.646606,0.2714844,125.1318,-71.14182,1.772003,-0.3184814,-0.2380371,-0.7470703
740,100,0.03137207,0.765625,0.2254639,-92.60026,61.3173,32.54654,-0.3184814,-0.2380371,-0.7470703
741,100,0.3192139,0.8319092,-0.05554199,22.15378,37.56348,21.5033,-0.3184814,-0.2380371,-0.7470703
742,100,0.3144531,1.015259,0.0513916,21.06964,-0.9420777,26.97632,-0.3184814,-0.2380371,-0.7470703
743,100,0.2802734,1.010254,0.2631836,173.1105,-94.0358,-9.353485,-0.3184814,-0.2380371,-0.7470703
744,100,0.02307129,1.008667,0.07922363,-114.111,76.20361,29.37638,-0.3184814,-0.2380371,-0.7470703
745,100,1.178345,1.362427,0.01831055,-41.09253,-127.9207,-9.181519,-0.2901611,-0.2376709,-0.7821045
746,100,0.4754639,0.9677734,0.02270508,-19.49203,-29.45114,11.31989,-0.2901611,-0.2376709,-0.7821045
747,100,0.06677246,0.5482178,0.381958,71.8222,-26.00434,-2.86786,-0.2901611,-0.2376709,-0.7821045
748,100,0.008178711,1.028076,-0.06347656,-92.43577,72.63718,12.09,-0.2901611,-0.2376709,-0.7821045
749,100,-0.02734375,0.7382813,-0.1934814,61.79581,35.96344,-47.63474,-0.2901611,-0.2376709,-0.7821045
750,100,0.1993408,1.068848,-0.02392578,103.9949,-14.54987,-24.06784,-0.2901611,-0.2376709,-0.7821045
751,100,0.1933594,0.4213867,0.532959,-33.93723,37.72797,4.508514,-0.3682861,-0.1917725,-0.805542
752,100,0.3071289,1.009888,0.005859375,-20.51636,20.33691,25.17441,-0.3682861,-0.1917725,-0.805542
753,100,0.3763428,1.062378,0.07995605,2.594452,8.493652,2960816,-0.3682861,-0.1917725,-0.805542
754,100,0.2851563,0.7519531,0.0715332,168.8412,-100.0696,-35.45502,-0.3682861,-0.1917725,-0.805542
755,100,0.06713867,1.133301,-0.06713867,-93.68439,34.28864,13.65265,-0.3682861,-0.1917725,-0.805542
756,100,0.7072754,1.225342,-0.1561279,-36.03821,-74.1774,-41.2944,-0.3682861,-0.1917725,-0.805542
757,100,0.432251,1.243042,-0.09338379,49.0329,-0.4411316,-615082,-0.3682861,-0.1917725,-0.805542
758,100,0.289917,0.5054932,0.4205322,15.9256,24.32205,-5.6327,-0.3458252,-0.2235107,-0.7767334
759,100,0.09777832,0.8652344,0.04748535,-65.23514,10.16098,17.02469,-0.3458252,-0.2235107,-0.7767334
760,100,0.1116943,0.94104,-0.2077637,27.37259,39.04388,15.10315,-0.3458252,-0.2235107,-0.7767334
761,100,0.08557129,1.443848,-0.06604004,125.4758,-49.61609,-26.90155,-0.3458252,-0.2235107,-0.7767334
762,100,0.01611328,0.8897705,0.08276367,-120.399,81.93085,38.13919,-0.3458252,-0.2235107,-0.7767334
763,100,0.8922119,1.402588,0.2088623,-26.70716,-21.75003,-23.07343,-0.3458252,-0.2235107,-0.7767334
764,100,0.5130615,0.9841309,-0.02026367,-3.117829,-42.19162,5.764618,-0.2431641,-0.2832031,-0.8037109
765,100,0.08166504,0.4678955,0.2272949,28.1427,0.4859925,-0.246918,-0.2431641,-0.2832031,-0.8037109
766,100,0.05236816,1.290161,-0.1605225,-137.2517,22.28836,0.6878662,-0.2431641,-0.2832031,-0.8037109
767,100,0.1131592,0.7095947,-0.08203125,70.94742,42.40097,-26.34079,-0.2431641,-0.2832031,-0.8037109
768,100,0.2680664,1.149658,-0.03308105,107.6436,-16.11252,-27.53708,-0.2431641,-0.2832031,-0.8037109
769,100,0.1889648,0.6593018,0.2657471,-89.5572,28.68103,31.43997,-0.2431641,-0.2832031,-0.8037109
770,100,0.6832275,1.245605,0.0970459,-47.21604,-129.9992,4.022522,-0.2779541,-0.2498779,-0.8012695
771,100,0.5820313,0.9787598,-0.04882813,3.401947,-9.764709,24.89029,-0.2779541,-0.2498779,-0.8012695
773,100,0.1815186,1.309082,-0.05578613,-87.845,24.85291,19.78363,-0.2779541,-0.2498779,-0.8012695
774,100,0.2683105,0.7539063,-0.1934814,50.20676,38.93173,-,-0.2779541,-0.2498779,-0.8012695
775,100,0.1953125,1.068726,0.1625977,93.1685,-1.786957,-35.784,-0.2779541,-0.2498779,-0.8012695
776,100,0.1784668,0.6019287,0.2880859,-71.89697,30.69229,21.52573,-0.3259277,-0.2054443,-0.8458252
777,100,0.3745117,0.7402344,-0.2116699,4.239349,17.06207,26.01181,-0.3259277,-0.2054443,-0.8458252
778,100,0.4483643,1.127441,-0.06018066,17.33124,22.89398,32.8157,-0.3259277,-0.2054443,-0.8458252
779,100,0.2344971,0.776123,0.03820801,144.0556,-172.3254,-54.12461,-0.3259277,-0.2054443,-0.8458252
780,100,0.09069824,0.9663086,0.1220703,-96.71998,29.89975,3.671112,-0.3259277,-0.2054443,-0.8458252
781,100,0.9984131,1.218384,0.1018066,-103.2771,-89.96842,-2.056122,-0.3259277,-0.2054443,-0.8458252
782,100,0.4326172,0.9731445,-0.008056641,-4.934692,-22.68463,11.73111,-0.307251,-0.2469482,-0.7625732
783,100,0.01403809,0.8271484,0.07519531,16.35178,-37.95227,-11.59653,-0.307251,-0.2469482,-0.7625732
784,100,0.1044922,1.325806,-0.04370117,-115.883,19.32007,5.286102,-0.307251,-0.2469482,-0.7625732
785,100,0.0703125,0.8560791,-0.0480957,40.01587,-8.830109,-54.65546,-0.307251,-0.2469482,-0.7625732
787,100,0.3172607,0.5181885,0.5065918,25.59311,27.64923,-11.68625,-0.307251,-0.2469482,-0.7625732
788,100,0.2561035,1.231689,-0.1772461,-88.26371,44.27018,8.852539,-0.307251,-0.2469482,-0.7625732
789,100,0.07714844,0.9396973,-0.104248,15.58167,25.31647,11.2825,-0.2957764,-0.2539063,-0.762207
790,100,0.1087646,1.116699,-0.08959961,49.91516,-66.99966,-31.73905,-0.2957764,-0.2539063,-0.762207
791,100,0.1414795,0.5427246,0.3851318,-61.2201,10.60211,15.99289,-0.2957764,-0.2539063,-0.762207
792,100,0.4628906,0.9460449,0.01904297,-27.70905,36.51672,91,-0.2957764,-0.2539063,-0.762207
793,100,0.4285889,1.0354,-0.0612793,32.96524,-7.865601,34.17648,-0.2957764,-0.2539063,-0.762207
794,100,-0.1599121,0.6390381,0.2794189,29.48853,-91.83015,-16.38916,-0.2957764,-0.2539063,-0.762207
795,100,0.2730713,1.137695,0.03234863,-91.39649,8.785248,15.17792,-0.3597412,-0.2443848,-0.8173828
796,100,0.1783447,1.041626,-0.116333,10.55725,-7.035676,-61.41449,-0.3597412,-0.2443848,-0.8173828
797,100,0.4692383,1.034424,-0.1419678,22.12387,-5.473022,-5.577698,-0.3597412,-0.2443848,-0.8173828
798,100,0.1644287,0.6231689,0.3084717,20.04532,15.94803,-23617,-0.3597412,-0.2443848,-0.8173828
799,100,0.0604248,1.263184,-0.07287598,-88.56278,23.68653,9.181519,-0.3597412,-0.2443848,-0.8173828
800,100,0.02307129,0.71875,-0.01904297,24.64356,39.43268,-5.43961,-0.3597412,-0.2443848,-0.8173828
801,100,0.3856201,1.167114,0.3822021,122.2308,-15.26016,-39.23828,-0.3354492,-0.2576904,-0.7738037
802,100,0.1142578,0.7424316,0.2087402,-82.37198,59.59015,28.47168,-0.3354492,-0.2576904,-0.7738037
803,100,0.4157715,0.7635498,-0.04907227,7.147828,17.77237,27.81372,-0.3354492,-0.2576904,-0.7738037
804,100,0.3978271,1.050659,-0.08422852,28.11279,11.35727,2853,-0.3354492,-0.2576904,-0.7738037
805,100,0.185791,0.5678711,0.2738037,156.6092,-167.316,-64.6952,-0.3354492,-0.2576904,-0.7738037
806,100,0.0814209,1.173462,-0.1422119,-99.22471,36.31485,23.49961,-0.3354492,-0.2576904,-0.7738037
807,100,0.6877441,0.9152832,-0.161499,30.18387,-4.478607,-0.26892,-0.3354492,-0.2576904,-0.7738037
808,100,0.4284668,1.040527,0.03833008,5.555268,-9.495544,-6.190796,-0.2541504,-0.279541,-0.7512207
809,100,0.1159668,0.6177979,0.2774658,13.23395,-0.8000184,-8.703003,-0.2541504,-0.279541,-0.7512207
810,100,0.2409668,1.464233,-0.144165,-119.6663,34.10172,8.142242,-0.2541504,-0.279541,-0.7512207
811,100,0.1368408,0.7943115,-0.01611328,47.70203,27.5969,-34.32602,-0.2541504,-0.279541,-0.7512207
812,100,0.3468018,1.036987,0.0838623,106.2454,-18.57986,-36.6214,-0.2541504,-0.279541,-0.7512207
813,100,0.2437744,0.5946045,0.3394775,-63.26126,18.86398,30.27359,-0.2541504,-0.279541,-0.7512207
814,100,0.324585,1.004883,-0.03369141,2.250519,58.16956,19.4397,-0.2879639,-0.2615967,-0.8060303
815,100,0.2324219,0.8818359,-0.07885742,36.80832,30.93903,18.97614,-0.2879639,-0.2615967,-0.8060303
816,100,0.3630371,1.195923,0.04284668,114.298,-88.63755,-7.663727,-0.2879639,-0.2615967,-0.8060303
818,100,0.5710449,1.069092,-0.05200195,-1.996307,-60.88364,-50.22171,-0.2879639,-0.2615967,-0.8060303
819,100,0.399292,1.042725,-0.01586914,4.015045,-6.833802,-12.00775,-0.2879639,-0.2615967,-0.8060303
820,100,-0.1867676,0.5864258,0.1824951,20.14252,-41.17477,0.594452,-0.3641357,-0.237793,-0.7609863
821,100,0.4193115,1.05896,-0.1429443,-110.7016,26.4679,15.549,-0.3641357,-0.237793,-0.7609863
822,100,0.04589844,0.8863525,-0.01464844,39.7168,-21.42853,-43.93372,-0.3641357,-0.237793,-0.7609863
823,100,0.3087158,1.036133,-0.03210449,11.92551,-7.4469,-14.64707,-0.3641357,-0.237793,-0.7609863
824,100,0.3902588,0.5129395,0.3251953,-14.03397,49.27216,4.575806,-0.3641357,-0.237793,-0.7609863
825,100,0.2573242,0.8554688,-0.03308105,-37.73544,23.74634,12.68067,-0.3641357,-0.237793,-0.7609863
826,100,0.2252197,0.923584,-0.1657715,51.73951,60.15839,11785,-0.3641357,-0.237793,-0.7609863
827,100,0.2224121,1.271729,0.02307129,102.7313,-38.83453,-27.51465,-0.2957764,-0.2763672,-0.7271729
828,100,0.2017822,0.6309814,0.2915039,-86.04309,67.48566,205658,-0.2957764,-0.2763672,-0.7271729
829,100,0.3668213,0.8253174,0.04443359,-18.66211,-21.20422,22.99118,-0.2957764,-0.2763672,-0.7271729
830,100,0.3909912,0.9729004,-0.02587891,6.39267,-5.622559,22.55005,-0.2957764,-0.2763672,-0.7271729
831,100,0.4262695,0.9135742,0.2541504,136.6013,-105.6622,-8.972168,-0.2957764,-0.2763672,-0.7271729
832,100,0.2641602,0.9078369,0.02111816,-92.86942,50.08713,7.170258,-0.2957764,-0.2763672,-0.7271729
833,100,0.8706055,0.9411621,-0.001098633,-48.56934,-84.34586,-3.805695,-0.3084717,-0.2788086,-0.7216797
834,100,0.4111328,1.061279,-0.01098633,22.10892,5.33844,5.3765,-0.3084717,-0.2788086,-0.7216797
835,100,-0.02722168,0.6020508,0.1900635,22.55005,12.91245,5.271149,-0.3084717,-0.2788086,-0.7216797
836,100,0.1173096,0.982666,-0.04492188,-74.89517,23.55194,8.067474,-0.3084717,-0.2788086,-0.7216797
837,100,0.2075195,0.8203125,-0.04724121,34.89426,44.69635,1.96686,-0.3084717,-0.2788086,-0.7216797
838,100,0.1715088,0.975708,0.04663086,40.62897,-12.09,-19.67896,-0.3084717,-0.2788086,-0.7216797
839,100,0.1424561,0.4443359,0.3831787,-18.15369,19.61166,-4.187012,-0.3487549,-0.2540283,-0.7628174
840,100,0.1867676,0.7723389,0.09594727,-33.60825,33.18954,5.330963,-0.3487549,-0.2540283,-0.7628174
841,100,0.2873535,0.8920898,-0.02966309,46.67023,61.14533,1.5033,-0.3487549,-0.2540283,-0.7628174
842,100,0.5062256,1.147705,-0.114502,120.8701,-35.55222,-34.41574,-0.3487549,-0.2540283,-0.7628174
843,100,0.004272461,0.736084,0.1693115,-101.1612,99.60603,30.22873,-0.3487549,-0.2540283,-0.7628174
844,100,0.4348145,0.9368896,0.008056641,24.91272,-23.03604,17.97424,-0.3487549,-0.2540283,-0.7628174
845,100,0.4307861,1,-0.04370117,11.66382,-4.515991,16.2315,-0.2874756,-0.2791748,-0.7338867
846,100,0.4360352,0.8770752,0.1046143,115.726,-221.9116,-34.66995,-0.2874756,-0.2791748,-0.7338867
847,100,0.3747559,1.083618,-0.05773926,-81.27289,39.97849,27.46979,-0.2874756,-0.2791748,-0.7338867
848,100,0.9212646,1.111938,-0.2456055,-38.0719,-74.62601,-51.82923,-0.2874756,-0.2791748,-0.7338867
849,100,0.3432617,1.025024,-0.06079102,98.85087,41.3916,-28.89038,-0.2874756,-0.2791748,-0.7338867
850,100,0.1636963,0.2988281,0.4345703,-1.59256,38.32611,5.42,-0.2874756,-0.2791748,-0.7338867
851,100,0.07409668,0.979248,0.03820801,7.177735,60.95093,12.44141,-0.2874756,-0.2791748,-0.7338867
852,100,0.25,0.8920898,-0.02429199,5.981446,14.51248,35.97839,-0.2828369,-0.2644043,-0.7272949
853,100,0.2192383,1.246338,0.01928711,172.0039,-101.2808,-0.1719666,-0.2828369,-0.2644043,-0.7272949
854,100,0.3000488,1.092163,-0.2009277,-88.56278,49.73572,12.95731,-0.2828369,-0.2644043,-0.7272949
855,100,0.6610107,0.8417969,-0.1544189,21.62292,-34.91669,-56.8013,-0.2828369,-0.2644043,-0.7272949
856,100,0.3859863,1.052612,-0.1456299,48.58429,20.99487,-14.46762,-0.2828369,-0.2644043,-0.7272949
857,100,0.1351318,0.5093994,0.3967285,20.95749,36.39709,10.1236,-0.2828369,-0.2644043,-0.7272949
858,100,0.2321777,0.9313965,0.06115723,-19.36493,49.33945,963,-0.3317871,-0.2581787,-0.7940674
859,100,0.144165,0.8459473,-0.1960449,31.49979,44.09821,10.98343,-0.3317871,-0.2581787,-0.7940674
860,100,0.3046875,1.250854,0.142334,95.80033,-38.74481,-32.47177,-0.3317871,-0.2581787,-0.7940674
861,100,0.03149414,0.6459961,0.2122803,-89.1684,63.41828,-0.02990723,-0.3317871,-0.2581787,-0.7940674
862,100,0.4089355,0.8436279,-0.1098633,17.07703,25.34638,14.31061,-0.3317871,-0.2581787,-0.7940674
863,100,0.4412842,0.9527588,0.001953125,5.764618,-8.21701,24.99497,-0.3317871,-0.2581787,-0.7940674
864,100,0.006103516,1.182495,0.1368408,145.9099,-46.04966,-6.078644,-0.3031006,-0.2619629,-0.715332
865,100,0.1099854,0.7678223,0.1351318,-89.57215,65.62393,9.577789,-0.3031006,-0.2619629,-0.715332
866,100,0.5046387,0.9846191,0.05249023,-9.151611,-12.09,23.82858,-0.3031006,-0.2619629,-0.715332
867,100,0.5864258,0.9423828,0.1097412,-0.269165,-9.009552,34.61014,-0.3031006,-0.2619629,-0.715332
868,100,0.21875,0.9443359,-0.000488281,111.2399,-87.06741,-2.003784,-0.3031006,-0.2619629,-0.715332
869,100,0.2226563,0.682251,0.2250977,-97.75925,39.95605,10.06378,-0.3031006,-0.2619629,-0.715332
870,100,0.3527832,0.8862305,-0.1589355,116.1522,82.31216,16.04523,-0.3112793,-0.2962646,-0.6583252
871,100,0.4702148,0.9486084,-0.1726074,15.20783,3.147736,243988,-0.3112793,-0.2962646,-0.6583252
872,100,0.3562012,1.127441,0.3918457,152.9904,-125.4683,-11.41708,-0.3112793,-0.2962646,-0.6583252
873,100,0.2012939,0.9437256,-0.02478027,-91.88248,71.32126,7.72003,-0.3112793,-0.2962646,-0.6583252
874,100,0.5826416,0.9436035,0.02856445,49.48899,1.338348,6.160889,-0.3112793,-0.2962646,-0.6583252
875,100,0.4577637,0.9476318,-0.02258301,33.47366,27.67166,5.615082,-0.3112793,-0.2962646,-0.6583252
876,100,0.2019043,0.7692871,0.4012451,155.2559,-112.7876,-8.605804,-0.3112793,-0.2962646,-0.6583252
877,100,0.1877441,0.97229,0.0802002,-77.43729,93.57224,21.67526,-0.3719482,-0.2943115,-0.6864014
878,100,0.7589111,0.9985352,-0.02746582,-49.7432,-69.58664,34.63257,-0.3719482,-0.2943115,-0.6864014
879,100,0.4752197,0.9545898,0.1032715,-14.40033,-12.96478,10.99091,-0.3719482,-0.2943115,-0.6864014
880,100,0.4776611,0.9725342,0.2559814,147.151,-136.4592,-19.79858,-0.3719482,-0.2943115,-0.6864014
881,100,0.2131348,1.009277,-0.04882813,-94.70124,63.08182,403839,-0.3719482,-0.2943115,-0.6864014
882,100,0.9304199,1.13916,-0.08374023,-64.08371,-144.5341,-3.058014,-0.3719482,-0.2943115,-0.6864014
883,100,0.5938721,0.9865723,0.01477051,4.628143,-9.570313,1.786957,-0.2926025,-0.2954102,-0.7050781
884,100,-0.1514893,0.6107178,0.1326904,36.06812,-10.57968,-21.25656,-0.2926025,-0.2954102,-0.7050781
885,100,0.4388428,1.306519,-0.09533691,-114.7167,59.09668,22.34818,-0.2926025,-0.2954102,-0.7050781
886,100,0.1942139,0.8778076,-0.2027588,61.82572,33.13721,-38.48312,-0.2926025,-0.2954102,-0.7050781
887,100,0.3712158,1.057983,-0.09326172,63.99399,-11.02081,-17.19666,-0.2926025,-0.2954102,-0.7050781
888,100,0.1534424,0.451416,0.4550781,-76.80176,45.36927,3.708496,-0.2926025,-0.2954102,-0.7050781
889,100,0.5061035,0.7989502,-0.08691406,-10.7666,17.38358,8.448792,-0.3061523,-0.2800293,-0.7667236
890,100,0.2460938,0.9193115,-0.05383301,19.02847,37.28683,11.28998,-0.3061523,-0.2800293,-0.7667236
891,100,0.1085205,1.182983,-0.03125,107.18,-62.48368,-20.63599,-0.3061523,-0.2800293,-0.7667236
892,100,0.1209717,0.7354736,0.2979736,-106.8137,76.02417,3.895416,-0.3061523,-0.2800293,-0.7667236
893,100,0.8981934,0.8218994,-0.1409912,-68.29315,-59.11164,37.58591,-0.3061523,-0.2800293,-0.7667236
894,100,0.4909668,0.9143066,0.05029297,-24.48654,-8.388977,30.92407,-0.3061523,-0.2800293,-0.7667236
895,100,0.2475586,0.9227295,0.3497314,188.1912,-129.2516,-7.514191,-0.3265381,-0.2728271,-0.7932129
896,100,0.2235107,1.036133,0.03918457,-103.2024,98.85835,9.959106,-0.3265381,-0.2728271,-0.7932129
897,100,0.4284668,0.8438721,-0.01550293,3.514099,-10.8638,1.15631,-0.3265381,-0.2728271,-0.7932129
898,100,0.352417,1.137085,-0.09448242,44.12064,6.960907,-20.8902,-0.3265381,-0.2728271,-0.7932129
899,100,0.2460938,0.08117676,0.5013428,-18.4079,50.09461,18.84155,-0.3265381,-0.2728271,-0.7932129
900,100,0.1549072,0.7573242,0.07971191,-68.30063,26.01181,7.230072,-0.3265381,-0.2728271,-0.7932129
901,100,0.2695313,0.9459229,-0.2393799,-7.82074,-7.491761,20.74814,-0.3265381,-0.2728271,-0.7932129
902,100,0.2210693,1.101929,0.02368164,162.1944,-48.94318,-7.237549,-0.3149414,-0.2884521,-0.689209
903,100,0.1964111,0.7647705,0.04870605,-112.4138,106.3052,31.20819,-0.3149414,-0.2884521,-0.689209
904,100,0.7078857,1.566528,0.227417,-40.18036,-69.59412,9.989014,-0.3149414,-0.2884521,-0.689209
905,100,0.6846924,1.025269,-0.005493164,-12.35916,5.787049,11.53671,-0.3149414,-0.2884521,-0.689209
906,100,-0.1274414,0.5385742,-0.03173828,19.0509,-48.82355,-15.75363,-0.3149414,-0.2884521,-0.689209
907,100,0.3447266,1.131714,0.004638672,-125.0122,57.07795,21.71265,-0.3149414,-0.2884521,-0.689209
908,100,0.09277344,0.7626953,-0.1844482,86.43936,54.9321,-25.72022,-0.2869873,-0.2757568,-0.7059326
909,100,0.286499,1.16333,-0.1202393,112.9746,-48.67402,-24.71832,-0.2869873,-0.2757568,-0.7059326
910,100,0.03149414,0.6654053,0.3780518,-64.78653,60.81635,26.34827,-0.2869873,-0.2757568,-0.7059326
911,100,0.5150146,0.9388428,0.03479004,-43.47015,-35.53726,1.32782,-0.2869873,-0.2757568,-0.7059326
912,100,0.5958252,1.049805,0.1447754,-34.52789,-27.94831,21463,-0.2869873,-0.2757568,-0.7059326
913,100,0.3345947,1.02478,0.2156982,185.7837,-118.4401,-8.276825,-0.2869873,-0.2757568,-0.7059326
914,100,0.08190918,0.9846191,-0.1036377,-96.4882,97.73682,11.46942,-0.3780518,-0.2423096,-0.7542725
915,100,0.7198486,0.7373047,0.0880127,12.53113,-44.39728,-54.34891,-0.3780518,-0.2423096,-0.7542725
916,100,0.3531494,1.154663,-0.03845215,20.81543,33.12225,-18256,-0.3780518,-0.2423096,-0.7542725
917,100,0.01940918,0.6047363,0.350708,34.98398,13.219,4.486084,-0.3780518,-0.2423096,-0.7542725
918,100,0.2670898,0.9158936,0.1591797,-86.54404,-7.327271,21.52573,-0.3780518,-0.2423096,-0.7542725
919,100,0.02722168,0.835083,-0.09997559,29.74274,61.79581,-18.67706,-0.3780518,-0.2423096,-0.7542725
920,100,0.3187256,1.07312,-0.03613281,63.80707,-18.9238,-12.90497,-0.4104004,-0.2587891,-0.7408447
921,100,0.2297363,0.440918,0.4152832,-18.85651,24.6286,-4.807587,-0.4104004,-0.2587891,-0.7408447
922,100,0.4095459,1.031128,0.1401367,-39.54483,16.40411,28.84552,-0.4104004,-0.2587891,-0.7408447
923,100,0.2060547,0.9753418,-0.06835938,9.308624,9.031982,6.29944,-0.4104004,-0.2587891,-0.7408447
924,100,0.1046143,1.279175,0.1430664,146.5753,-78.36441,-13.75733,-0.4104004,-0.2587891,-0.7408447
925,100,0.02746582,0.9346924,0.05004883,-105.1837,63.95661,13.56293,-0.4104004,-0.2587891,-0.7408447
926,100,0.588501,1.039673,-0.09387207,-49.9675,-83.75519,22.07901,-0.4104004,-0.2587891,-0.7408447
927,100,0.5270996,0.9714355,-0.02282715,21.79489,7.177735,0.2542114,-0.3312988,-0.2744141,-0.6608887
928,100,-0.03527832,0.6035156,0.1448975,15.00595,-4.949646,-14.21341,-0.3312988,-0.2744141,-0.6608887
929,100,0.2276611,1.402222,-0.09765625,-101.4752,17.2789,1.00964,-0.3312988,-0.2744141,-0.6608887
930,100,0.1419678,0.8079834,-0.1326904,59.38828,60.51728,-25.27161,-0.3312988,-0.2744141,-0.6608887
931,100,0.3339844,1.120972,0.1409912,104.8174,-43.37296,-25.5333,-0.3312988,-0.2744141,-0.6608887
932,100,0.1409912,0.7071533,0.2532959,-78.24478,43.7468,11241,-0.3312988,-0.2744141,-0.6608887
933,100,0.3624268,0.8759766,-0.06726074,6.033783,25.24918,20.52383,-0.3775635,-0.2747803,-0.7514648
934,100,0.2178955,0.8925781,-0.04992676,23.39493,30.36331,15.20035,-0.3775635,-0.2747803,-0.7514648
935,100,0.3918457,1.07251,-0.112915,126.0964,-95.72556,-16.12747,-0.3775635,-0.2747803,-0.7514648
936,100,0.1156006,1.046753,-0.1630859,-100.8098,69.19785,16.9574,-0.3775635,-0.2747803,-0.7514648
937,100,0.7806396,1.1521,0.02319336,-27.76138,-87.59079,-0.657959,-0.3775635,-0.2747803,-0.7514648
938,100,0.5144043,0.9276123,0.006225586,10.961,12.36664,2.11279,-0.3775635,-0.2747803,-0.7514648
939,100,-0.004150391,0.6252441,0.07385254,11.80588,-22.19116,-6.826325,-0.3612061,-0.2514648,-0.7852783
940,100,0.2302246,1.403687,-0.2296143,-115.9204,25.38376,1.674805,-0.3612061,-0.2514648,-0.7852783
941,100,0.06616211,0.8686523,-0.1829834,51.66474,38.90182,-45.38422,-0.3612061,-0.2514648,-0.7852783
943,100,0.02685547,0.7565918,0.1661377,12.97226,-17.31628,0.37781,-0.3612061,-0.2514648,-0.7852783
944,100,0.2191162,1.50708,-0.1231689,-132.5638,37.01019,-1.899109,-0.3612061,-0.2514648,-0.7852783
945,100,0.08068848,0.9217529,-0.1791992,37.30927,11.31989,-51.08155,-0.3612061,-0.2514648,-0.7852783
946,100,0.3952637,0.9471436,0.04016113,-1.570129,-0.388794,-7.955323,-0.2797852,-0.3037109,-0.6640625
947,100,0.104126,0.6640625,0.1573486,4.344025,21.29395,-3.147736,-0.2797852,-0.3037109,-0.6640625
948,100,0.2001953,0.7591553,-0.04931641,-46.48331,39.36539,10.75165,-0.2797852,-0.3037109,-0.6640625
949,100,0.02001953,0.8399658,-0.1962891,33.17459,40.49438,-7.910462,-0.2797852,-0.3037109,-0.6640625
950,100,0.2756348,1.099854,-0.03430176,81.16074,-31.00632,-18.54996,-0.2797852,-0.3037109,-0.6640625
951,100,0.2911377,0.4989014,0.2979736,-34.04938,32.31476,1.143951,-0.2797852,-0.3037109,-0.6640625
952,100,0.3193359,0.9880371,0.02209473,-39.24576,20.83786,3.29376,-0.3565674,-0.2823486,-0.7373047
953,100,0.2747803,0.9127197,-0.0255127,25.1445,19.67148,9.510498,-0.3565674,-0.2823486,-0.7373047
954,100,0.328125,1.198486,-0.1022949,64.7641,-32.62878,-17.78732,-0.3565674,-0.2823486,-0.7373047
955,100,0.1508789,0.5216064,0.2036133,-40.9729,26.73706,-1809387,-0.3565674,-0.2823486,-0.7373047
956,100,0.4304199,0.8861084,0.06567383,-42.55798,21.74255,18.57986,-0.3565674,-0.2823486,-0.7373047
957,100,0.3243408,0.9204102,0.01208496,10.65445,11.1853,13.26386,-0.3565674,-0.2823486,-0.7373047
958,100,0.1245117,1.113037,-0.04064941,105.3183,-33.78769,-11.86569,-0.3187256,-0.2883301,-0.7255859
959,100,0.1557617,0.7038574,0.1484375,-71.72501,47.388,7.125397,-0.3187256,-0.2883301,-0.7255859
960,100,0.3682861,0.9133301,-0.1304932,-1.106567,-22.07901,8.418884,-0.3187256,-0.2883301,-0.7255859
961,100,0.3807373,0.9276123,-0.06726074,35.32043,37.9747,18.23593,-0.3187256,-0.2883301,-0.7255859
962,100,0.1466064,1.033813,-0.08984375,97.22092,-83.2019,11.14792,-0.3187256,-0.2883301,-0.7255859
964,100,0.6342773,1.132202,-0.0604248,-31.98578,-47.94129,27.32025,-0.3007813,-0.2689209,-0.729126
965,100,0.510376,0.9932861,0.02233887,3.581391,-2.9982,10.36285,-0.3007813,-0.2689209,-0.729126
966,100,0.3480225,0.7470703,0.2664795,112.2269,-107.5165,-26.94641,-0.3007813,-0.2689209,-0.729126
967,100,0.2810059,1.164551,0.002319336,-90.12543,42.06451,19.65652,-0.3007813,-0.2689209,-0.729126
968,100,0.5496826,1.057373,-0.2563477,-43.38791,-73.69141,-40.18784,-0.3007813,-0.2689209,-0.729126
970,100,-0.0345459,0.7299805,0.2331543,39.96353,-8.54599,-0.8897401,-0.3007813,-0.2689209,-0.729126
971,100,0.2646484,1.273682,-0.1734619,-86.50665,30.81192,196307,-0.3907471,-0.2368164,-0.7833252
972,100,0.2469482,0.9742432,-0.07226563,23.62671,-3.379517,-43.56735,-0.3907471,-0.2368164,-0.7833252
973,100,0.3740234,1.022705,-0.01416016,-2.250519,16.50879,4588,-0.3907471,-0.2368164,-0.7833252
975,100,0.1397705,1.338379,0.1982422,-56.05362,6.317902,9.532928,-0.3907471,-0.2368164,-0.7833252
976,100,0.2397461,0.8005371,-0.1209717,-12.29187,-14.96857,0.299164,-0.3907471,-0.2368164,-0.7833252
977,100,0.4019775,0.9265137,-0.2403564,8.703003,-27.50717,1.26358,-0.3457031,-0.2716064,-0.659668
978,100,0.04406738,0.6380615,0.06384277,6.542206,-6.527253,-15.04334,-0.3457031,-0.2716064,-0.659668
979,100,0.3171387,1.150757,-0.1499023,-60.53971,53.0629,10.69931,-0.3457031,-0.2716064,-0.659668
980,100,0.2004395,0.8895264,0.01843262,38.83453,3.970185,-40.06073,-0.3457031,-0.2716064,-0.659668
981,100,0.5288086,0.9571533,-0.1343994,9.929199,-30.38574,-6.863709,-0.3457031,-0.2716064,-0.659668
982,100,0.1890869,0.6513672,0.2427979,38.67752,-9.667511,-1.80191,-0.3457031,-0.2716064,-0.659668
983,100,0.3249512,1.253052,-0.01928711,-94.35731,16.55365,8.351593,-0.4069824,-0.2978516,-0.7325439
984,100,0.5037842,1.11792,0.05627441,-82.70096,-67.3735,-14.52744,-0.4069824,-0.2978516,-0.7325439
985,100,0.4421387,0.9694824,-0.123291,18.0191,-6.258088,0.500946,-0.4069824,-0.2978516,-0.7325439
986,100,0.02990723,0.7324219,0.2166748,41.33926,-15.14801,-7.873078,-0.4069824,-0.2978516,-0.7325439
987,100,0.3048096,1.234863,-0.07641602,-76.48026,34.74472,2.01523,-0.4069824,-0.2978516,-0.7325439
988,100,0.4486084,0.9052734,-0.03442383,21.4061,-24.6286,-468,-0.4069824,-0.2978516,-0.7325439
989,100,0.4313965,0.9631348,-0.1933594,55.08164,-25.46601,-12.3143,-0.4069824,-0.2978516,-0.7325439
990,100,0.3416748,0.526123,0.3859863,-23.21549,46.52069,5.906678,-0.3300781,-0.2844238,-0.769043
991,100,0.3790283,1.166626,-0.04199219,-32.62131,30.8194,19.3425,-0.3300781,-0.2844238,-0.769043
992,100,0.2139893,0.8934326,-0.1427002,42.52808,40.24765,9.3468,-0.3300781,-0.2844238,-0.769043
993,100,0.258667,1.02417,-0.05090332,117.7896,-102.6267,-3.588867,-0.3300781,-0.2844238,-0.769043
994,100,0.1346436,0.9285889,0.02185059,-85.04868,66.2146,22.51267,-0.3300781,-0.2844238,-0.769043
995,100,0.4713135,1.006714,0.1185303,-27.44736,-24.5314,11.3797,-0.3300781,-0.2844238,-0.769043
997,100,0.5611572,0.9929199,0.2991943,122.5449,-65.26505,-20801,-0.3126221,-0.2770996,-0.6845703
998,100,0.2536621,0.9664307,-0.1512451,-67.23145,45.60852,5.757142,-0.3126221,-0.2770996,-0.6845703
999,100,0.8260498,0.9680176,0.1466064,-55.71717,-57.43683,17.26395,-0.3126221,-0.2770996,-0.6845703
1000,100,0.52771,0.9686279,-0.1206055,4.089813,-2.66922,2.13089,-0.3126221,-0.2770996,-0.6845703
1001,100,-0.09472656,0.6428223,0.1446533,28.10532,-7.514191,0.500946,-0.3126221,-0.2770996,-0.6845703
1002,100,0.4001465,1.518433,-0.105957,-109.8193,42.45331,25.45105,-0.3366699,-0.2739258,-0.8052979
1004,100,0.4196777,1.09668,-0.1711426,26.96137,9.099274,-12.48627,-0.3366699,-0.2739258,-0.8052979
1005,100,0.3953857,0.4592285,0.3234863,10.52734,31.00632,-4.059906,-0.3366699,-0.2739258,-0.8052979
1006,100,0.1802979,0.9672852,0.02722168,-75.00732,14.23584,706604,-0.3366699,-0.2739258,-0.8052979
1007,100,0.1032715,0.8328857,-0.1118164,57.97516,49.33197,-31.96335,-0.3366699,-0.2739258,-0.8052979
1008,100,0.3748779,1.003784,-0.06103516,73.19046,-23.78372,24.97254,-0.2902832,-0.295166,-0.730957
1009,100,0.401001,0.6124268,0.2279053,-9.383392,39.57474,-1.158905,-0.2902832,-0.295166,-0.730957
1010,100,0.3276367,0.9760742,-0.05310059,-35.96344,27.28287,20.72571,-0.2902832,-0.295166,-0.730957
1011,100,0.1812744,0.8812256,-0.1053467,21.05469,38.0719,10.78156,-0.2902832,-0.295166,-0.730957
1012,100,0.2705078,1.050903,-0.1943359,54.29657,-47.6796,-0.86209,-0.2902832,-0.295166,-0.730957
1013,100,0.2697754,0.5646973,0.2895508,-31.02875,30.99884,2.729034,-0.2902832,-0.295166,-0.730957
1015,100,0.4263916,0.9694824,0.07910156,-16.26205,3.222504,15.9256,-0.2922363,-0.2889404,-0.6982422
1016,100,0.3908691,1.048584,0.2261963,144.9005,-103.0379,-16.31439,-0.2922363,-0.2889404,-0.6982422
1017,100,0.201416,0.9257813,0.04223633,-95.39658,85.21317,14.72183,-0.2922363,-0.2889404,-0.6982422
1018,100,0.8526611,0.840332,-0.06262207,-34.99893,-67.06696,23.15567,-0.2922363,-0.2889404,-0.6982422
1019,100,0.4857178,0.8565674,0.001831055,-9.420776,9.099274,19.25278,-0.2922363,-0.2889404,-0.6982422
1020,100,0.4719238,1.039185,0.3647461,127.9431,-66.07254,-3.24143,-0.2922363,-0.2889404,-0.6982422
1021,100,0.161499,1.003296,0.07763672,-87.6506,76.18118,32019,-0.3193359,-0.2756348,-0.7650146
1023,100,0.4348145,0.9438477,-0.005249023,1.697235,5.899201,10.57968,-0.3193359,-0.2756348,-0.7650146
1024,100,0.2601318,1.047607,0.1489258,120.1149,-100.1967,-1.114044,-0.3193359,-0.2756348,-0.7650146
1025,100,0.2415771,0.7938232,0.08886719,-84.39819,80.75699,26.03424,-0.3193359,-0.2756348,-0.7650146
1026,100,0.6606445,1.058472,-0.0177002,-38.94669,-34.69986,22.91641,-0.3193359,-0.2756348,-0.7650146
1027,100,0.6158447,0.8850098,-0.01574707,-7.09549,4.157104,9.420776,-0.2304688,-0.3096924,-0.7382813
1028,100,0.6053467,0.7142334,0.3354492,118.0962,-98.2602,-44.50196,-0.2304688,-0.3096924,-0.7382813
1029,100,0.3613281,1.013428,-0.03649902,-87.14218,19.58923,4.418793,-0.2304688,-0.3096924,-0.7382813
1030,100,0.6948242,1.067749,0.1219482,-85.34027,-85.22812,-21.60797,-0.2304688,-0.3096924,-0.7382813
1031,100,0.503418,0.8730469,-0.05993652,5.114136,0.07476807,-7.357178,-0.2304688,-0.3096924,-0.7382813
1032,100,0.5615234,0.9986572,0.2630615,122.9112,-51.53763,24.63608,-0.2304688,-0.3096924,-0.7382813
1033,100,0.2393799,0.9151611,0.08117676,-88.51792,67.89688,25.96695,-0.2906494,-0.300415,-0.8022461
1034,100,0.7161865,1.075439,0.02661133,-38.99902,-39.19342,22.60239,-0.2906494,-0.300415,-0.8022461
1035,100,0.6864014,0.9213867,0.07250977,-3.319702,-16.0228,16.10504,-0.2906494,-0.300415,-0.8022461
1036,100,0.4499512,0.954834,0.2644043,145.9697,-108.6081,-29.58573,-0.2906494,-0.300415,-0.8022461
1037,100,0.2364502,1.087402,-0.04943848,-90.1703,57.04056,0.08224487,-0.2906494,-0.300415,-0.8022461
1038,100,0.9569092,0.8509521,-0.02160645,-14.41528,-45.15244,-1.719666,-0.2906494,-0.300415,-0.8022461
1039,100,0.4598389,0.9543457,-0.01831055,5.069275,9.525452,0.6654358,-0.2906494,-0.300415,-0.8022461
1040,100,0.02612305,0.6933594,-0.01940918,18.85651,-43.14117,-22.4379,-0.2946777,-0.307251,-0.7199707
1041,100,0.5001221,1.398071,-0.131958,-104.9445,65.62393,10.31052,-0.2946777,-0.307251,-0.7199707
1042,100,0.3813477,0.9189453,-0.3311768,19.08829,-21.09207,-61.66123,-0.2946777,-0.307251,-0.7199707
1043,100,0.4858398,1.067993,-0.0736084,17.16675,4.747772,-549683,-0.2946777,-0.307251,-0.7199707
1044,100,0.2226563,0.461792,0.0994873,7.192688,-6.048737,1.435547,-0.2946777,-0.307251,-0.7199707
1045,100,0.3905029,1.322632,-0.2425537,-89.90861,45.33936,0.41519,-0.2946777,-0.307251,-0.7199707
1046,100,0.03845215,0.8551025,-0.1564941,77.3027,54.84238,69022,-0.2724609,-0.2950439,-0.6796875
1047,100,0.4152832,1.032593,-0.1036377,53.19001,-48.23288,-10.61707,-0.2724609,-0.2950439,-0.6796875
1048,100,0.3525391,0.6136475,0.2794189,0.9346009,26.82678,-2.175751,-0.2724609,-0.2950439,-0.6796875
1049,100,0.3968506,0.9031982,-0.03991699,-48.77869,48.99552,9.839478,-0.2724609,-0.2950439,-0.6796875
1050,100,0.100708,0.7321777,-0.201416,-14.12369,22.38556,1.532745,-0.2724609,-0.2950439,-0.6796875
1051,100,0.1518555,1.121216,0.1522217,99.47144,-51.88157,-39.76913,-0.2724609,-0.2950439,-0.6796875
1052,100,0.1282959,0.739502,0.2584229,-73.13065,11.64139,894598,-0.2808838,-0.3037109,-0.7679443
1053,100,0.6916504,1.052368,-0.006225586,-36.44196,48.03849,3.91037,-0.2808838,-0.3037109,-0.7679443
1054,100,0.4414063,0.9466553,-0.01477051,-12.48627,11.06567,6.033783,-0.2808838,-0.3037109,-0.7679443
1055,100,0.2919922,1.086914,-0.1065674,87.62817,-53.14515,6.20575,-0.2808838,-0.3037109,-0.7679443
1056,100,0.2188721,0.5955811,0.2467041,-42.13928,26.74454,-10.48248,-0.2808838,-0.3037109,-0.7679443
1057,100,0.4466553,0.736084,0.03430176,-20.71823,20.26962,8.912354,-0.2808838,-0.3037109,-0.7679443
1058,100,0.2445068,0.9029541,-0.1221924,31.35025,41.07758,0.55924,-0.2808838,-0.3037109,-0.7679443
1059,100,0.3054199,1.213745,-0.1352539,102.8584,-48.6142,-24.19495,-0.2388916,-0.3193359,-0.6890869
1060,100,0.3048096,0.4671631,0.3603516,-88.97401,36.92047,25.20432,-0.2388916,-0.3193359,-0.6890869
1062,100,0.4624023,0.8930664,0.005371094,-10.60211,-7.805787,36.85318,-0.2388916,-0.3193359,-0.6890869
1063,100,0.01306152,1.214966,-0.04248047,118.5597,-31.31287,-9.428253,-0.2388916,-0.3193359,-0.6890869
1064,100,0.09460449,0.7479248,0.3078613,-94.79844,59.2537,11.35727,-0.2388916,-0.3193359,-0.6890869
1065,100,0.7332764,1.216675,0.3936768,4.658051,-2.901001,-1.809387,-0.2664795,-0.3164063,-0.7420654
1066,100,0.5200195,0.9515381,-0.08886719,25.12207,8.21701,9.966583,-0.2664795,-0.3164063,-0.7420654
1067,100,0.5021973,1.025269,0.2520752,141.0574,-124.8851,-20.11261,-0.2664795,-0.3164063,-0.7420654
1068,100,0.2558594,0.9759521,-0.2412109,-90.45441,65.63141,9.570313,-0.2664795,-0.3164063,-0.7420654
1069,100,0.704834,0.6881104,-0.1704102,44.74121,-11.71616,-50.96939,-0.2664795,-0.3164063,-0.7420654
1070,100,0.5102539,1.024414,-0.1546631,28.86048,-12.86759,-6.325379,-0.2664795,-0.3164063,-0.7420654
1071,100,0.1228027,0.5345459,0.3554688,12.04514,-12.36664,0.661835,-0.3133545,-0.3148193,-0.7650146
1074,100,0.3892822,1.0448,0.03564453,91.26191,-45.07019,-337277,-0.3133545,-0.3148193,-0.7650146
1075,100,0.2550049,0.5230713,0.2874756,-61.09299,67.79968,0.51636,-0.3133545,-0.3148193,-0.7650146
1076,100,0.5581055,0.7960205,-0.09509277,-11.7984,13.33115,21.12198,-0.3133545,-0.3148193,-0.7650146
1077,100,0.5341797,1.015625,-0.09277344,33.00262,17.34619,8.441315,-0.3133545,-0.3148193,-0.7650146
1078,100,0.3133545,0.7199707,0.2675781,108.1371,-125.9094,-29.41376,-0.2585449,-0.3077393,-0.7293701
1079,100,0.4510498,1.059814,-0.1137695,-95.09751,60.3154,16.12,-0.2585449,-0.3077393,-0.7293701
1080,100,0.5031738,0.8984375,-0.2050781,16.8602,1.547699,-37,-0.2585449,-0.3077393,-0.7293701
1081,100,0.5928955,0.9798584,-0.1293945,21.51825,-28.92777,0.650574,-0.2585449,-0.3077393,-0.7293701
1082,100,0.2792969,0.5970459,0.1767578,6.931,24.77066,6.77987,-0.2585449,-0.3077393,-0.7293701
1083,100,0.4243164,1.324585,-0.1453857,-87.55341,50.4834,18.09387,-0.2585449,-0.3077393,-0.7293701
1084,100,0.3417969,0.8027344,-0.09570313,32.00073,29.33151,-2552,-0.2463379,-0.3046875,-0.7406006
1085,100,0.4189453,1.047119,0.01745605,83.08975,-50.42359,-22.93884,-0.2463379,-0.3046875,-0.7406006
1086,100,0.2554932,0.4945068,0.2974854,-61.07056,48.28522,1.951447,-0.2463379,-0.3046875,-0.7406006
1087,100,0.4365234,0.7313232,-0.09362793,7.476807,37.40646,10.14603,-0.2463379,-0.3046875,-0.7406006
1088,100,0.2913818,0.8317871,-0.1025391,36.86813,47.03659,6.0228,-0.2463379,-0.3046875,-0.7406006
1089,100,0.3952637,1.001709,-0.175293,55.28351,-48.83103,-16.12,-0.2463379,-0.3046875,-0.7406006
1090,100,0.3601074,0.5318604,0.375,-33.19702,8.19458,0.3962708,-0.2741699,-0.2614746,-0.828125
1093,100,0.2653809,1.20752,0.05627441,88.12165,-35.17838,-21.03973,-0.2741699,-0.2614746,-0.828125
1094,100,0.08117676,0.7386475,0.260376,-82.47665,61.09299,6.116028,-0.2741699,-0.2614746,-0.828125
1095,100,0.6335449,0.9284668,0.2994385,-43.75427,-35.93353,10.5722,-0.2741699,-0.2614746,-0.828125
1096,100,0.5772705,0.8795166,0.01806641,-13.48816,-13.56293,24.26224,-0.2277832,-0.3133545,-0.7362061
1097,100,0.4873047,1.072632,0.2940674,188.4828,-137.8125,-15.78354,-0.2277832,-0.3133545,-0.7362061
1098,100,0.1772461,0.9960938,0.1005859,-108.7651,114.7241,21.95938,-0.2277832,-0.3133545,-0.7362061
1099,100,0.7246094,0.9515381,0.2752686,-41.91498,-24.69589,31.52222,-0.2277832,-0.3133545,-0.7362061
1100,100,0.5131836,0.9176025,-0.03417969,21.69769,-1.40564,-5.136566,-0.2277832,-0.3133545,-0.7362061
1101,100,0.2988281,0.3830566,0.3648682,31.19324,-0.1644897,-9.734802,-0.2277832,-0.3133545,-0.7362061
1102,100,0.3895264,1.224609,0.05627441,-67.91931,64.57718,21.18179,-0.2429199,-0.3083496,-0.7670898
1103,100,0.09973145,0.7243652,-0.166748,64.79401,21.90704,-37.15225,-0.2429199,-0.3083496,-0.7670898
1104,100,0.4440918,1.197266,0.1899414,106.238,-54.13208,-37.27936,-0.2429199,-0.3083496,-0.7670898
1105,100,0.1031494,0.7322998,0.1315918,-94.29749,81.25046,13.60031,-0.2429199,-0.3083496,-0.7670898
1106,100,0.6489258,1.093018,-0.07641602,-21.08459,-50.13947,21.17432,-0.2429199,-0.3083496,-0.7670898
1107,100,0.5980225,0.9327393,-0.09106445,-9.301147,-5.824433,14.07135,-0.2429199,-0.3083496,-0.7670898
1108,100,0.3934326,1.141968,0.4282227,157.7382,-108.3763,3102875,-0.2429199,-0.3083496,-0.7670898
1109,100,0.3076172,0.989624,0.02282715,-101.0416,64.39774,-0.5981445,-0.3477783,-0.2957764,-0.6842041
1110,100,0.9844971,0.8448486,-0.03662109,-76.58493,-102.836,-3.386994,-0.3477783,-0.2957764,-0.6842041
1111,100,0.5249023,0.9445801,-0.03796387,1.764526,-13.03207,-0.3813172,-0.3477783,-0.2957764,-0.6842041
1112,100,0.1025391,0.5306396,0.4277344,62.83509,-55.56015,6953431,-0.3477783,-0.2957764,-0.6842041
1113,100,0.4298096,1.084229,-0.09997559,-93.62458,91.47126,,-0.3477783,-0.2957764,-0.6842041
1114,100,0.4923096,0.9095459,-0.1450195,12.78534,-36.77094,-54.46106,-0.3477783,-0.2957764,-0.6842041
1115,100,0.4686279,1.014893,-0.05297852,1.951447,-13.40592,2.228088,-0.2626953,-0.3239746,-0.6956787
1116,100,0.322876,0.6358643,0.1113281,38.49808,50.70771,5.0293,-0.2626953,-0.3239746,-0.6956787
1117,100,0.3575439,1.243896,-0.1323242,-97.53495,66.06506,9.136658,-0.2626953,-0.3239746,-0.6956787
1118,100,0.1992188,0.973999,-0.1470947,11.40213,-33.85498,-52.89841,-0.2626953,-0.3239746,-0.6956787
1119,100,0.3572998,1.052612,-0.1507568,46.78986,-27.96326,-13.04703,-0.2626953,-0.3239746,-0.6956787
1120,100,0.4088135,0.4934082,0.40271,4.224396,34.32602,9.278717,-0.2626953,-0.3239746,-0.6956787
1121,100,0.3393555,0.87146,-0.01574707,-56.69663,17.54059,17.36862,-0.3195801,-0.2670898,-0.8056641
1122,100,0.09899902,0.9439697,0.005859375,39.09622,37.84012,-33.73535,-0.3195801,-0.2670898,-0.8056641
1123,100,0.2849121,1.124512,-0.08813477,60.77149,-57.07795,-24.59122,-0.3195801,-0.2670898,-0.8056641
1124,100,0.2698975,0.6756592,0.2553711,-54.805,48.3899,7.476807,-0.3195801,-0.2670898,-0.8056641
1125,100,0.3991699,0.7783203,-0.01733398,6.527253,35.08118,33.39142,-0.3195801,-0.2670898,-0.8056641
1126,100,0.2883301,0.802002,-0.01281738,35.47745,39.17847,4.19098,-0.3195801,-0.2670898,-0.8056641
1128,100,0.06994629,0.7258301,0.1623535,-91.17219,71.64276,114792,-0.3101807,-0.2965088,-0.7545166
1129,100,0.494873,0.9019775,-0.1262207,3.843079,4.07486,15.97046,-0.3101807,-0.2965088,-0.7545166
1130,100,0.5476074,0.951416,-0.05102539,8.8974,6.011353,9.181519,-0.3101807,-0.2965088,-0.7545166
1131,100,0.4902344,0.9118652,0.2735596,142.8444,-117.2139,1.24115,-0.3101807,-0.2965088,-0.7545166
1132,100,0.2087402,0.9350586,0.04846191,-76.86905,84.53278,10.83389,-0.3101807,-0.2965088,-0.7545166
1133,100,0.9527588,1.265625,0.0489502,-67.00714,-111.9353,-22.28836,-0.2888184,-0.3045654,-0.6456299
1134,100,0.4628906,0.9436035,-0.0592041,21.02478,4.927216,-9.510498,-0.2888184,-0.3045654,-0.6456299
1135,100,0.0793457,0.6368408,0.05273438,8.71048,24.47907,1.854248,-0.2888184,-0.3045654,-0.6456299
1136,100,0.3444824,1.186646,-0.09436035,-101.393,11.10306,5.465546,-0.2888184,-0.3045654,-0.6456299
1137,100,0.2407227,0.9117432,-0.2050781,43.96362,14.49753,0.49268,-0.2888184,-0.3045654,-0.6456299
1139,100,0.2579346,0.6551514,0.1859131,25.64545,32.15775,16.0228,-0.2888184,-0.3045654,-0.6456299
1140,100,0.2700195,0.9038086,0.01159668,-50.0647,33.22693,7.289887,-0.3305664,-0.2729492,-0.8178711
1141,100,0.1192627,0.9003906,0.03967285,9.689941,46.745,-8.620758,-0.3305664,-0.2729492,-0.8178711
1142,100,0.3886719,0.9790039,-0.1309814,33.73535,-29.32404,-13.00217,-0.3305664,-0.2729492,-0.8178711
1143,100,0.5144043,0.4493408,0.4060059,-5.652466,50.72266,-6.893616,-0.3305664,-0.2729492,-0.8178711
1144,100,0.3535156,0.6854248,-0.1212158,-38.55789,25.66788,5.906678,-0.3305664,-0.2729492,-0.8178711
1145,100,0.4727783,0.9138184,-0.21521,50.57312,32.35214,16.06018,-0.3305664,-0.2729492,-0.8178711
1146,100,0.2078857,1.283325,-0.2271729,104.8398,-76.42044,93506,-0.2749023,-0.3261719,-0.7093506
1147,100,0.1564941,0.8902588,0.06396484,-85.13092,62.10984,9.06189,-0.2749023,-0.3261719,-0.7093506
1148,100,0.6738281,1.014526,-0.1516113,-40.52429,-51.8367,4.61365,-0.2749023,-0.3261719,-0.7093506
1150,100,0.4656982,1.023682,0.3537598,178.2172,-91.33668,9.256287,-0.2749023,-0.3261719,-0.7093506
1151,100,0.1422119,0.7789307,0.1784668,-79.30649,94.83582,29.31656,-0.2749023,-0.3261719,-0.7093506
1152,100,0.5523682,1.026978,0.3395996,-3.955231,5.233765,-35565,-0.2563477,-0.3054199,-0.7457275
1153,100,0.5603027,0.9770508,-0.07336426,22.81174,33.1073,22.69959,-0.2563477,-0.3054199,-0.7457275
1154,100,0.1173096,0.5770264,0.1707764,58.15461,-115.5391,-42.69257,-0.2563477,-0.3054199,-0.7457275
1155,100,0.4395752,1.041748,-0.01745605,-91.41892,95.32929,15.64148,-0.2563477,-0.3054199,-0.7457275
1156,100,0.9023438,0.8039551,-0.0402832,-27.40998,-59.85184,-13.36105,-0.2563477,-0.3054199,-0.7457275
1157,100,0.6114502,0.8382568,-0.004638672,5.36087,-3.611298,11.13297,-0.2563477,-0.3054199,-0.7457275
1158,100,0.0715332,0.4886475,0.1254883,9.592743,-28.92777,-15.42465,-0.2825928,-0.2647705,-0.8122559
1159,100,0.4764404,1.434082,-0.1427002,-103.1426,52.16568,24.28467,-0.2825928,-0.2647705,-0.8122559
1160,100,0.3146973,0.8325195,-0.1420898,0.5532837,20.53131,15.71625,-0.2825928,-0.2647705,-0.8122559
1161,100,0.4873047,1.505127,-0.03869629,100.578,-58.2518,-41.89255,-0.2825928,-0.2647705,-0.8122559
1162,100,0.1953125,0.9317627,-0.2198486,-93.91618,96.2938,33.71292,-0.2825928,-0.2647705,-0.8122559
1163,100,0.7689209,1.26709,-0.06835938,-20.00046,-67.75482,-38.13919,-0.2825928,-0.2647705,-0.8122559
1165,100,0.2623291,0.4289551,0.3381348,14.88632,29.0773,-3.671112,-0.2473145,-0.3122559,-0.7579346
1166,100,0.06555176,1.005371,0.05004883,-110.4997,-13.40592,12.50122,-0.2473145,-0.3122559,-0.7579346
1167,100,0.197876,0.7435303,-0.2110596,71.11938,64.77158,-15.14053,-0.2473145,-0.3122559,-0.7579346
1168,100,0.2941895,1.291382,-0.04699707,110.7315,-37.70554,-42.3262,-0.2473145,-0.3122559,-0.7579346
1169,100,0.2470703,0.6516113,0.1137695,-100.7575,80.94391,35.38025,-0.2473145,-0.3122559,-0.7579346
1170,100,0.7768555,0.9293213,0.1081543,-23.8884,-19.55933,60266,-0.2473145,-0.3122559,-0.7579346
1171,100,0.6923828,0.8969727,-0.0982666,0.3289795,-1.936493,7.170258,-0.2197266,-0.3391113,-0.6628418
1172,100,0.2023926,0.6096191,0.2325439,44.41224,-100.1444,-28.03803,-0.2197266,-0.3391113,-0.6628418
1173,100,0.6711426,1.084961,-0.2341309,-87.41135,38.87192,1.88111,-0.2197266,-0.3391113,-0.6628418
1174,100,0.3027344,0.7962646,-0.1629639,61.19767,15.67886,28.09036,-0.2197266,-0.3391113,-0.6628418
1175,100,0.6387939,1.190063,0.03796387,136.0629,-23.11081,-33.16711,-0.2197266,-0.3391113,-0.6628418
1176,100,0.2111816,0.5153809,0.3067627,-68.59222,86.90292,30.51285,-0.2197266,-0.3391113,-0.6628418
1177,100,0.418335,0.7860107,0.2004395,-115.3298,-70.02777,45.18982,-0.1986084,-0.3309326,-0.7734375
1178,100,0.5826416,0.9259033,-0.04748535,-15.94055,-29.48853,2317,-0.1986084,-0.3309326,-0.7734375
1179,100,0.5101318,0.8001709,0.01525879,144.1304,-160.5569,-27.03613,-0.1986084,-0.3309326,-0.7734375
1180,100,0.3389893,1.15271,-0.1552734,-84.47296,84.83932,2.826233,-0.1986084,-0.3309326,-0.7734375
1181,100,1.11499,0.7260742,-0.1503906,0.4635621,-63.90427,-15.38727,-0.1986084,-0.3309326,-0.7734375
1182,100,0.5922852,0.8469238,0.04443359,-2.9982,-11.51428,6.602021,-0.1986084,-0.3309326,-0.7734375
1183,100,0.208252,0.487915,0.4191895,37.64572,-10.78903,1622467,-0.2429199,-0.3547363,-0.770752
1184,100,0.519043,0.8598633,-0.00390625,-89.12354,20.95749,-1.293488,-0.2429199,-0.3547363,-0.770752
1185,100,0.2961426,0.8688965,-0.1120605,64.51736,72.56989,-24.07532,-0.2429199,-0.3547363,-0.770752
1186,100,0.4562988,1.190063,0.1212158,84.35333,-24.94263,-0.01578,-0.2429199,-0.3547363,-0.770752
1187,100,0.3758545,0.404541,0.2628174,-56.24054,65.75104,12462,-0.2429199,-0.3547363,-0.770752
1188,100,0.5622559,0.6757813,0.0769043,-12.15729,14.22836,38.22144,-0.2429199,-0.3547363,-0.770752
1189,100,0.630249,0.9873047,-0.0904541,11.72363,-6.145936,0.22098,-0.2429199,-0.3547363,-0.770752
1190,100,0.4268799,1.057007,0.01745605,90.6862,-132.7881,-23.51456,-0.2530518,-0.3447266,-0.6669922
1191,100,0.4243164,1.092163,-0.1158447,-81.95328,66.52863,91452,-0.2530518,-0.3447266,-0.6669922
1192,100,1.029297,0.795166,-0.1385498,-21.58554,-104.0996,5.60059,-0.2530518,-0.3447266,-0.6669922
1193,100,0.7429199,0.7764893,-0.1397705,2.497253,-28.32215,0.61148,-0.2530518,-0.3447266,-0.6669922
1194,100,-0.1580811,0.6652832,0.0715332,20.70328,-6.153412,7.222596,-0.2530518,-0.3447266,-0.6669922
1195,100,0.5385742,1.087158,-0.04309082,-94.34235,29.92218,13.64517,-0.2530518,-0.3447266,-0.6669922
1197,100,0.6176758,0.9768066,-0.01538086,43.71689,-36.35223,-27.57446,-0.2044678,-0.3475342,-0.6713867
1198,100,0.2921143,0.4553223,0.3353271,-38.21396,39.64203,5.435638,-0.2044678,-0.3475342,-0.6713867
1199,100,0.3675537,0.9364014,-0.1046143,3.611298,28.41187,0.23206,-0.2044678,-0.3475342,-0.6713867
1200,100,0.5869141,0.7979736,-0.1433105,8.254395,18.37051,33.40637,-0.2044678,-0.3475342,-0.6713867
1201,100,0.4393311,1.208496,-0.192627,52.82364,-41.97479,-24.58374,-0.2044678,-0.3475342,-0.6713867
1202,100,0.4667969,0.3741455,0.3397217,-13.06946,47.26838,-0.1570129,-0.2250977,-0.3240967,-0.7714844
1205,100,0.4995117,1.075928,-0.1851807,57.13776,-31.70914,-22.42295,-0.2250977,-0.3240967,-0.7714844
1206,100,0.3908691,0.2469482,0.5061035,-2.811279,9.226379,-10.3479,-0.2250977,-0.3240967,-0.7714844
1207,100,0.4818115,1.19519,-0.05541992,-101.9612,35.5896,132547,-0.2250977,-0.3240967,-0.7714844
1208,100,0.1824951,0.8933105,0.0123291,35.83633,27.17819,-32406,-0.2250977,-0.3240967,-0.659668
1209,100,0.5632324,0.9885254,-0.1547852,51.39557,-7.222596,-17.52563,-0.2045898,-0.3654785,-0.659668
1210,100,0.4400635,0.5551758,0.2850342,25.80994,16.26953,4.949646,-0.2045898,-0.3654785,-0.659668
1211,100,0.4735107,1.240112,0.015625,-87.64313,31.38764,3.39447,-0.2045898,-0.3654785,-0.659668
1212,100,0.2694092,0.8782959,-0.08337402,20.20233,-5.50293,1.06659,-0.2045898,-0.3654785,-0.659668
1213,100,0.5664063,0.9755859,-0.1365967,38.80463,-9.293671,16.28448,-0.2045898,-0.3654785,-0.659668
1214,100,0.4100342,0.5738525,0.1878662,22.25846,18.54248,5.17395,-0.2045898,-0.3654785,-0.659668
1215,100,0.432373,0.994751,0.02087402,-79.86725,3.37204,11.41708,-0.2497559,-0.362915,-0.7783203
1216,100,0.1268311,0.8811035,-0.0423584,40.44205,43.30566,-22.41547,-0.2497559,-0.362915,-0.7783203
1217,100,0.6057129,0.996582,-0.230835,52.80869,-39.52988,-7.78732,-0.2497559,-0.362915,-0.7783203
1218,100,0.435791,0.3577881,0.3393555,-11.28998,32.84561,0.6504822,-0.2497559,-0.362915,-0.7783203
1219,100,0.4562988,1.058838,-0.0682373,-37.24197,33.97461,11.16287,-0.2497559,-0.362915,-0.7783203
1220,100,0.3651123,0.8040771,-0.04675293,16.12,19.23035,1000397,-0.2497559,-0.362915,-0.7783203
1221,100,0.3710938,1.20874,0.2205811,109.4455,-45.46646,-30.84183,-0.2664795,-0.3713379,-0.7093506
1224,100,0.5626221,0.848877,0.05810547,-21.05469,-11.02081,24.22486,-0.2664795,-0.3713379,-0.7093506
1225,100,0.4420166,0.894043,-0.100708,113.1316,-115.9877,-0.058106,-0.2664795,-0.3713379,-0.7093506
1226,100,0.2678223,0.8421631,0.006225586,-85.07858,93.89375,13.10684,-0.2664795,-0.3713379,-0.7093506
1227,100,0.940918,1.080933,0.1142578,-49.23478,-36.50177,27.17072,-0.2664795,-0.3713379,-0.7093506
1228,100,0.5910645,0.8787842,-0.1065674,8.52356,6.071167,16.23215,-0.2263184,-0.3598633,-0.6190186
1229,100,0.5021973,0.7589111,0.2686768,119.2775,-142.7023,-30.13153,-0.2263184,-0.3598633,-0.6190186
1230,100,0.3828125,1.066895,-0.1778564,-73.33252,78.61862,27.77634,-0.2263184,-0.3598633,-0.6190186
1231,100,0.3594971,0.8101807,-0.1838379,55.91904,17.97424,-52.09092,-0.2263184,-0.3598633,-0.6190186
1232,100,0.6158447,0.9094238,-0.138916,30.2063,-2.968292,-8143,-0.2263184,-0.3598633,-0.6190186
1233,100,0.2536621,0.5501709,-0.0255127,20.67337,10.90118,4.187012,-0.2263184,-0.3598633,-0.6190186
1234,100,0.4362793,1.041138,-0.07739258,-86.43936,24.88281,6.20575,-0.2481689,-0.3643799,-0.7874756
1235,100,0.3930664,0.7832031,0.00378418,79.68033,49.97498,-37.63824,-0.2481689,-0.3643799,-0.7874756
1236,100,0.6228027,0.9544678,-0.1593018,32.52411,-19.59671,-16.51627,-0.2481689,-0.3643799,-0.7874756
1237,100,0.4365234,0.4240723,0.3311768,18.1163,16.54617,-2.041168,-0.2481689,-0.3643799,-0.7874756
1238,100,0.4094238,1.022461,-0.0402832,-51.45539,48.89084,21.48834,-0.2481689,-0.3643799,-0.7874756
1239,100,0.2045898,0.7739258,-0.1268311,7.671204,18.16116,0.400055,-0.2481689,-0.3643799,-0.7874756
1240,100,0.4608154,0.9984131,-0.08056641,45.80292,-42.40097,-0.15955,-0.2210693,-0.3665771,-0.68396
1241,100,0.3244629,0.49646,0.2775879,-40.12802,39.70184,8.9719,-0.2210693,-0.3665771,-0.68396
1242,100,0.4876709,0.9355469,0.01318359,-23.43979,31.64185,17.80975,-0.2210693,-0.3665771,-0.68396
1243,100,0.5007324,0.8479004,-0.1430664,6.706696,-1.084137,27.46231,-0.2210693,-0.3665771,-0.68396
1244,100,0.4589844,1.108276,-0.3032227,83.40378,-106.1183,8.20602,-0.2210693,-0.3665771,-0.68396
1245,100,0.2486572,0.7232666,0.08837891,-79.09714,60.92102,11.02829,-0.2210693,-0.3665771,-0.68396
1246,100,0.4888916,0.7753906,-0.2303467,45.34684,60.40512,697418,-0.2128906,-0.3443604,-0.7049561
1247,100,0.4416504,0.824585,-0.1662598,21.95938,5.398254,15.46951,-0.2128906,-0.3443604,-0.7049561
1248,100,0.3841553,1.036499,-0.1004639,37.46628,-55.38071,16.97983,-0.2128906,-0.3443604,-0.7049561
1249,100,0.3006592,0.5325928,0.2210693,-31.9484,45.45899,114053,-0.2128906,-0.3443604,-0.7049561
1250,100,0.5427246,0.7854004,-0.09777832,23.43231,43.09631,7.38358,-0.2128906,-0.3443604,-0.7049561
1251,100,0.5517578,0.8179932,-0.1182861,42.4234,19.11072,20.73318,-0.2128906,-0.3443604,-0.7049561
1252,100,0.4074707,1.284912,-0.0526123,67.8894,-56.07605,-27.89597,-0.2128906,-0.3443604,-0.7049561
1253,100,0.2990723,0.7036133,0.1678467,-41.50375,22.05658,21.5332,-0.2421875,-0.3807373,-0.7380371
1254,100,0.3027344,0.8637695,-0.03601074,27.00623,44.38233,-3.760834,-0.2421875,-0.3807373,-0.7380371
1255,100,0.4954834,0.8414307,-0.210083,55.26856,28.21747,923578,-0.2421875,-0.3807373,-0.7380371
1256,100,0.4602051,1.089966,-0.0604248,57.57141,-57.79572,-24.56879,-0.2421875,-0.3807373,-0.7380371
1257,100,0.3879395,0.3780518,0.2775879,-15.55176,43.24585,17.0845,-0.2421875,-0.3807373,-0.7380371
1258,100,0.4425049,0.7304688,-0.0255127,-4.441223,41.35422,8.329163,-0.2421875,-0.3807373,-0.7380371
1259,100,0.5296631,0.835083,-0.1361084,38.99902,24.03046,21.0173,-0.2072754,-0.3502197,-0.6746826
1260,100,0.3820801,1.263428,-0.07824707,64.00146,-27.85858,-32.95029,-0.2072754,-0.3502197,-0.6746826
1261,100,0.2983398,0.6248779,0.1730957,-53.54142,48.98056,0.88641,-0.2072754,-0.3502197,-0.6746826
1262,100,0.5545654,0.9090576,0.03112793,-4.560852,15.65643,20.35187,-0.2072754,-0.3502197,-0.6746826
1263,100,0.5010986,0.8427734,-0.1082764,16.06766,2.115936,3.28278,-0.2072754,-0.3502197,-0.6746826
1264,100,0.4266357,1.198853,-0.05529785,85.39261,-28.54645,-29.96704,-0.2072754,-0.3502197,-0.6746826
1265,100,0.3676758,0.6306152,0.1901855,-46.5506,36.22513,26.52024,-0.199707,-0.3592529,-0.8243408
1266,100,0.2546387,0.9006348,0.01477051,7.09549,36.12793,-235657,-0.199707,-0.3592529,-0.8243408
1267,100,0.3602295,0.8231201,-0.09179688,39.49997,33.66058,0.4560853,-0.199707,-0.3592529,-0.8243408
1268,100,0.4227295,1.288818,0.008666992,92.361,-40.32242,-0.07181,-0.199707,-0.3592529,-0.8243408
1269,100,0.3051758,0.7286377,0.1097412,-60.51728,57.01813,28.71094,-0.199707,-0.3592529,-0.8243408
1270,100,0.6320801,0.7746582,-0.006225586,-13.78723,-12.64328,9.906769,-0.199707,-0.3592529,-0.8243408
1271,100,0.6445313,0.8139648,-0.1048584,-10.28061,-8.35907,0.32196,-0.190918,-0.3504639,-0.7091064
1272,100,0.519165,1.231689,-0.003173828,90.86564,-47.96372,-32.27737,-0.190918,-0.3504639,-0.7091064
1273,100,0.3347168,0.7531738,0.1386719,-61.58646,86.38702,15.35736,-0.190918,-0.3504639,-0.7091064
1274,100,0.6173096,0.8438721,-0.02709961,10.55725,2.9982,10.78903,-0.190918,-0.3504639,-0.7091064
1275,100,0.5665283,0.836792,-0.125,7.319794,-17.34619,17.28638,-0.190918,-0.3504639,-0.7091064
1276,100,0.3093262,1.012573,-0.06726074,83.38135,-75.31387,-14.83399,-0.190918,-0.3504639,-0.7091064
1277,100,0.3707275,0.7971191,0.08056641,-51.5152,57.44431,0.38547,-0.190918,-0.3504639,-0.7091064
1278,100,0.5714111,0.6356201,-0.000976563,46.06461,19.3425,9.503021,-0.2205811,-0.3843994,-0.7655029
1279,100,0.5325928,0.8710938,-0.1533203,37.92984,32.00073,0.08459,-0.2205811,-0.3843994,-0.7655029
1280,100,0.5390625,1.262085,-0.1098633,69.78851,-54.12461,0.16522,-0.2205811,-0.3843994,-0.7655029
1281,100,0.3275146,0.7952881,0.100708,-70.34927,57.10038,974042,-0.2205811,-0.3843994,-0.7655029
1282,100,0.5634766,0.6777344,-0.05432129,-1.308441,25.47348,23.02857,-0.2205811,-0.3843994,-0.7655029
1283,100,0.5668945,0.9355469,-0.08605957,11.82831,-8.396454,30.58762,-0.2205811,-0.3843994,-0.7655029
1284,100,0.5946045,1.247925,0.1776123,96.49567,-47.73194,-43.04398,-0.1965332,-0.3641357,-0.7419434
1285,100,0.3842773,0.7113037,0.1035156,-69.24271,58.49854,0.08109,-0.1965332,-0.3641357,-0.7419434
1286,100,0.7977295,0.7529297,0.1580811,23.2753,1.94397,13.94,-0.1965332,-0.3641357,-0.7419434
1287,100,0.6472168,0.8884277,-0.1462402,45.97489,32.25494,0.38556,-0.1965332,-0.3641357,-0.7419434
1288,100,0.5947266,1.161133,0.02270508,110.9932,-23.58933,-35.784,-0.1965332,-0.3641357,-0.7419434
1289,100,0.2971191,0.7113037,0.170166,-70.52124,35.47745,26.19873,-0.1965332,-0.3641357,-0.7419434
1290,100,0.6654053,0.7364502,0.01696777,6.616974,-15.96298,14.75922,-0.1633301,-0.3654785,-0.7692871
1291,100,0.5906982,0.7659912,-0.1234131,12.93488,-7.61139,19.23782,-0.1633301,-0.3654785,-0.7692871
1292,100,0.4710693,1.027344,0.01806641,79.15695,-32.46429,-27.11838,-0.1633301,-0.3654785,-0.7692871
1293,100,0.3917236,0.7819824,0.08898926,-66.17722,55.1265,12.7031,-0.1633301,-0.3654785,-0.7692871
1294,100,0.7590332,0.6525879,-0.1175537,39.18594,-3.18512,67474,-0.1633301,-0.3654785,-0.7692871
1295,100,0.6181641,0.7767334,-0.06640625,9.607697,-1.128998,16.33682,-0.1633301,-0.3654785,-0.7692871
1296,100,0.4984131,1.09668,-0.05187988,92.5554,-14.01154,-29.75769,-0.1712646,-0.3707275,-0.769043
1297,100,0.4144287,0.52771,0.2144775,-51.86661,50.01236,28.50907,-0.1712646,-0.3707275,-0.769043
1298,100,0.9003906,0.6142578,-0.1750488,-49.10767,-28.90534,60.9285,-0.1712646,-0.3707275,-0.769043
1300,100,0.6789551,0.6567383,0.1273193,103.7183,-70.16235,-43.70941,-0.1712646,-0.3707275,-0.769043
1301,100,0.4481201,0.8570557,0.04333496,-41.84769,84.90662,54.6106,-0.1712646,-0.3707275,-0.769043
1302,100,0.7619629,0.6650391,-0.078125,40.03082,3.461762,15.85083,-0.1712646,-0.3707275,-0.769043
1303,100,0.6322021,0.8094482,-0.06958008,6.04126,1.128998,29.21936,-0.1536865,-0.355835,-0.7216797
1304,100,0.5371094,0.9958496,0.06225586,128.0777,-70.58853,-42.49069,-0.1536865,-0.355835,-0.7216797
1305,100,0.4385986,0.8826904,-0.0177002,-57.76581,71.59042,39.87381,-0.1536865,-0.355835,-0.7216797
1306,100,1.123657,0.6503906,-0.1287842,-36.06812,-80.19623,7.58545,-0.1536865,-0.355835,-0.7216797
1307,100,0.8322754,0.8869629,0.1722412,-20.8902,-3.581391,28.76328,-0.1536865,-0.355835,-0.7216797
1308,100,0.5314941,0.9615479,0.1070557,106.3725,-54.31153,-43.41782,-0.1536865,-0.355835,-0.7216797
1309,100,0.4382324,0.7741699,-0.02294922,-63.12668,41.44394,32.24747,-0.1555176,-0.3696289,-0.8502197
1310,100,0.7838135,0.7956543,0.1090088,-12.74796,-15.0882,11.9928,-0.1555176,-0.3696289,-0.8502197
1311,100,0.6737061,0.7854004,-0.04943848,10.73669,3.095398,16.97983,-0.1555176,-0.3696289,-0.8502197
1312,100,0.6169434,1.061768,0.003173828,99.44154,-71.53809,-44.31504,-0.1555176,-0.3696289,-0.8502197
1313,100,0.4362793,0.8231201,-0.0826416,-57.48917,81.26541,43.68698,-0.1555176,-0.3696289,-0.8502197
1314,100,1.260132,0.7634277,-0.1671143,-91.05256,-105.6772,2.743988,-0.1555176,-0.3696289,-0.8502197
1316,100,0.6202393,0.5084229,0.1872559,77.44476,-74.16992,7.87003,-0.1185303,-0.3624268,-0.7840576
1317,100,0.4887695,0.9468994,-0.1727295,-72.4054,36.29242,6083,-0.1185303,-0.3624268,-0.7840576
1318,100,0.9625244,0.6535645,-0.03027344,-3.940277,-49.66095,-58.96958,-0.1185303,-0.3624268,-0.7840576
1319,100,0.8311768,0.7106934,0.02490234,-12.1872,9.076843,529053,-0.1185303,-0.3624268,-0.7840576
1320,100,0.5203857,0.3736572,0.1781006,52.04605,-91.44135,0.73318,-0.1185303,-0.3624268,-0.7840576
1321,100,0.5821533,0.9542236,0.04956055,-91.83015,33.08487,34.17648,-0.1185303,-0.3624268,-0.7840576
1322,100,1.013672,0.6226807,-0.00390625,-19.9556,-53.00309,-47.57492,-0.1517334,-0.3885498,-0.7459717
1324,100,0.2495117,0.5090332,0.215332,14.6994,-5.36087,1.091614,-0.1517334,-0.3885498,-0.7459717
1325,100,0.5029297,1.092041,0.01025391,-66.04263,50.27405,9552,-0.1517334,-0.3885498,-0.7459717
1326,100,0.387207,0.8679199,-0.04736328,-24.7258,-17.42844,-50.93201,-0.1517334,-0.3885498,-0.7459717
1328,100,0.3793945,0.4805908,0.1135254,24.4043,2.826233,-1.637421,-0.144165,-0.3884277,-0.7886963
1330,100,0.5625,0.7835693,-0.1726074,-25.79498,-35.50735,-64.07623,-0.144165,-0.3884277,-0.7886963
1331,100,0.7520752,0.84729,-0.08483887,-0.06729126,-1.293488,-2.459869,-0.144165,-0.3884277,-0.7886963
1332,100,0.3638916,0.5386963,0.2181396,39.65698,-40.52429,-5.271149,-0.144165,-0.3884277,-0.7886963
1333,100,0.65271,0.9842529,0.1392822,-96.2938,30.66239,37.01,-0.144165,-0.3884277,-0.7886963
1334,100,0.9512939,0.7548828,-0.184082,-49.72077,-78.7532,2.11685,-0.1149902,-0.3621826,-0.7313232
1335,100,0.7441406,0.7242432,-0.009765625,-7.581482,-5.959015,7.185212,-0.1149902,-0.3621826,-0.7313232
1336,100,0.3319092,0.6582031,0.2015381,23.1482,-5.809479,0.9196473,-0.1149902,-0.3621826,-0.7313232
1337,100,0.692627,0.8869629,0.03833008,-85.31036,29.50348,37.2644,-0.1149902,-0.3621826,-0.7313232
1338,100,0.6062012,0.7478027,-0.1206055,-6.72165,-13.71246,2.50962,-0.1149902,-0.3621826,-0.7313232
1340,100,0.2687988,0.4151611,0.3470459,34.3335,-65.55664,-7.745972,-0.1149902,-0.3621826,-0.7313232
1341,100,0.7504883,1.203125,0.009765625,-102.5594,28.81561,25.18189,-0.1495361,-0.3553467,-0.8591309
1342,100,0.875,0.744873,-0.140625,-23.14072,-65.10056,-54.85733,-0.1495361,-0.3553467,-0.8591309
1343,100,0.861084,0.7911377,-0.04040527,-35.61951,-18.29575,7.387085,-0.1495361,-0.3553467,-0.8591309
1344,100,0.2905273,0.6138916,0.1726074,33.27927,-38.00461,-11.48438,-0.1495361,-0.3553467,-0.8591309
1345,100,0.6787109,1.048828,0.1098633,-78.97751,40.95795,33.64563,-0.1495361,-0.3553467,-0.8591309
1348,100,0.4440918,0.473877,0.2279053,31.06613,-82.8804,-16.35178,-0.1239014,-0.3880615,-0.7480469
1349,100,0.6923828,0.9897461,-0.0168457,-86.55151,37.18964,31.69419,-0.1239014,-0.3880615,-0.7480469
1350,100,0.8726807,0.7713623,-0.1925049,-59.00696,-73.66898,-41.27197,-0.1239014,-0.3880615,-0.7480469
1352,100,0.550293,0.6185303,0.1817627,30.35584,-68.41278,-14.68445,-0.1239014,-0.3880615,-0.7480469
1353,100,0.7731934,1.022827,-0.01013184,-76.10641,36.41953,32.51663,-0.1412354,-0.3970947,-0.8183594
1354,100,0.8774414,0.6130371,-0.1375732,-24.27719,-64.9884,32.3671,-0.1412354,-0.3970947,-0.8183594
1355,100,0.7666016,0.6904297,-0.002197266,-12.09747,4.11972,11.68625,-0.1412354,-0.3970947,-0.8183594
1356,100,0.7651367,0.7932129,0.2358398,92.83204,-60.56961,-29.39133,-0.1412354,-0.3970947,-0.8183594
1357,100,0.472168,0.6992188,0.06567383,-43.358,61.56403,28.76328,-0.1412354,-0.3970947,-0.8183594
1358,100,0.8979492,0.8188477,0.05200195,-53.91526,-44.96552,7.364655,-0.1412354,-0.3970947,-0.8183594
1359,100,0.7409668,0.7176514,-0.06298828,7.514191,1.248627,18.52753,-0.1308594,-0.3935547,-0.7296143
1360,100,0.7429199,0.9831543,0.1468506,105.3931,-79.7551,-29.10721,-0.1308594,-0.3935547,-0.7296143
1361,100,0.4903564,0.7580566,0.05578613,-69.8558,99.0677,13.862,-0.1308594,-0.3935547,-0.7296143
1362,100,0.9978027,0.6329346,0.07287598,-40.89813,-43.07388,20.6958,-0.1308594,-0.3935547,-0.7296143
1363,100,0.786499,0.7242432,-0.04052734,-8.972168,-9.45816,14.52744,-0.1308594,-0.3935547,-0.7296143
1364,100,0.6508789,0.5198975,0.07739258,56.50223,-138.6873,-35.38773,-0.1308594,-0.3935547,-0.7296143
1365,100,0.8200684,1.032837,0.005371094,-85.60196,43.82904,40.43457,-0.1308594,-0.3935547,-0.7296143
1366,100,0.6263428,0.6710205,-0.1151123,5.540314,-47.07398,-42.7449,-0.1131592,-0.3977051,-0.7507324
1368,100,0.4282227,0.446167,0.2680664,50.4834,-107.0604,-22.48276,-0.1131592,-0.3977051,-0.7507324
1369,100,0.6506348,0.9854736,0.02380371,-90.45441,48.47214,31.25305,-0.1131592,-0.3977051,-0.7507324
1370,100,0.7802734,0.6734619,0.04589844,-2.400055,-42.34116,-39.13361,-0.1131592,-0.3977051,-0.7507324
1371,100,0.7091064,0.8812256,-0.09191895,12.30682,-17.51068,-8.882446,-0.1131592,-0.3977051,-0.7507324
1372,100,0.380127,0.5003662,0.1589355,9.929199,-10.21332,11.78345,-0.1113281,-0.3934326,-0.7885742
1373,100,0.5494385,0.8395996,-0.04272461,-54.66294,50.01984,12.91245,-0.1113281,-0.3934326,-0.7885742
1374,100,0.6376953,0.6798096,-0.05822754,4.897308,6.385193,15.54428,-0.1113281,-0.3934326,-0.7885742
1375,100,0.7768555,1.071289,0.1115723,86.01318,-67.81464,-4.14307,-0.1113281,-0.3934326,-0.7885742
1376,100,0.4874268,0.602417,0.1802979,-50.9021,102.6566,161814,-0.1113281,-0.3934326,-0.7885742
1377,100,0.7177734,0.652832,-0.02770996,4.508514,-11.02829,1.495361,-0.1113281,-0.3934326,-0.7885742
1378,100,0.7764893,0.6903076,0.01220703,20.14999,4.568329,22.36313,-0.07043457,-0.3955078,-0.7429199
1379,100,0.6838379,0.8792725,0.0682373,84.92905,-113.4905,-45.20478,-0.07043457,-0.3955078,-0.7429199
1380,100,0.5004883,0.7075195,0.0345459,-63.51548,108.2193,2281,-0.07043457,-0.3955078,-0.7429199
1381,100,1.059937,0.6669922,0.07873535,-35.298,-24.28467,13.58536,-0.07043457,-0.3955078,-0.7429199
1383,100,0.7088623,0.5507813,0.2558594,59.61258,-141.5359,8.92426,-0.07043457,-0.3955078,-0.7429199
1384,100,0.6895752,0.8511963,0.004394531,-78.18497,65.62393,31.24558,-0.1068115,-0.4069824,-0.7979736
1385,100,0.9787598,0.524292,0.1164551,-56.86112,-53.83301,8.553467,-0.1068115,-0.4069824,-0.7979736
1386,100,0.8572998,0.6513672,0.04260254,-10.34042,9.495544,7.588959,-0.1068115,-0.4069824,-0.7979736
1387,100,0.3717041,0.5401611,0.2119141,3.72345,-117.3036,-37.32422,-0.1068115,-0.4069824,-0.7979736
1388,100,0.7574463,1.087524,0.02026367,-84.57764,45.07019,23.64166,-0.1068115,-0.4069824,-0.7979736
1389,100,0.5761719,0.7630615,-0.161377,-3.401947,-6.400147,50.91706,-0.1068115,-0.4069824,-0.7979736
1390,100,0.7844238,0.7584229,-0.0168457,44.24027,-18.9238,-19.63409,-0.1068115,-0.4069824,-0.7979736
1391,100,0.5701904,0.4204102,0.2590332,7.768403,12.96478,9.129181,-0.08959961,-0.4095459,-0.8009033
1392,100,0.5620117,0.9278564,-0.01647949,-46.22162,39.29062,18.07144,-0.08959961,-0.4095459,-0.8009033
1393,100,0.4871826,0.7036133,-0.1071777,51.08155,42.67761,0.41943,-0.08959961,-0.4095459,-0.8009033
1394,100,0.8010254,0.9812012,0.2758789,82.54395,-51.81427,-51.76194,-0.08959961,-0.4095459,-0.8009033
1395,100,0.4691162,0.6575928,0.151001,-64.53232,54.97696,1.38736,-0.08959961,-0.4095459,-0.8009033
1396,100,0.6795654,0.321167,-0.09375,-18.07892,-0.8000184,20.81543,-0.08959961,-0.4095459,-0.8009033
1397,100,0.8067627,0.6278076,0.02819824,-5.158997,-8.291779,25.12955,-0.0637207,-0.3970947,-0.7265625
1398,100,0.7352295,0.8399658,0.2406006,103.1052,-77.92328,-37.91489,-0.0637207,-0.3970947,-0.7265625
1399,100,0.6204834,1.264526,0.1867676,-78.85788,88.30109,9846954,-0.0637207,-0.3970947,-0.7265625
1400,100,0.8381348,0.4510498,-0.4415283,42.7449,-39.41772,-45.22721,-0.0637207,-0.3970947,-0.7265625
1401,100,0.8001709,0.7030029,-0.03991699,0.4411316,-3.499146,9.652557,-0.0637207,-0.3970947,-0.7265625
1402,100,0.3222656,0.3643799,0.2175293,44.24027,-67.08939,-14.11621,-0.0637207,-0.3970947,-0.7265625
1403,100,0.9396973,1.14624,0.07128906,-80.45044,54.1919,34.90173,-0.07470703,-0.3566895,-0.8574219
1404,100,0.7205811,0.7185059,-0.2362061,-37.64572,-62.58088,-77.8186,-0.07470703,-0.3566895,-0.8574219
1406,100,0.6164551,0.387085,0.206665,28.35953,-1.794434,4.575806,-0.07470703,-0.3566895,-0.8574219
1407,100,0.7369385,0.8305664,0.0501709,-41.75797,50.42359,26.34079,-0.07470703,-0.3566895,-0.8574219
1408,100,0.5743408,0.7122803,0.0645752,33.60077,22.90146,-33.80264,-0.07470703,-0.3566895,-0.8574219
1409,100,0.8100586,0.8339844,0.130249,20.38177,-53.97507,-36.47934,-0.03759766,-0.376709,-0.7983398
1410,100,0.4674072,0.3452148,0.3582764,-21.79489,49.16001,13.77976,-0.03759766,-0.376709,-0.7983398
1411,100,0.5739746,0.3657227,-0.06640625,10.1535,25.94452,0.67319,-0.03759766,-0.376709,-0.7983398
1412,100,0.6711426,0.7144775,-0.02697754,38.15414,21.5332,14.25079,-0.03759766,-0.376709,-0.7983398
1413,100,0.7000732,0.7735596,0.09326172,46.81977,-52.37503,-67.6651,-0.03759766,-0.376709,-0.7983398
1414,100,0.5351563,0.3796387,0.2685547,-50.82734,55.59754,23.40988,-0.03759766,-0.376709,-0.7983398
1415,100,0.8477783,0.5661621,0.03540039,-10.91614,14.19846,19.00604,-0.02270508,-0.3824463,-0.8214111
1416,100,0.8214111,0.6356201,0.02111816,1.861725,7.693635,20.23972,-0.02270508,-0.3824463,-0.8214111
1417,100,0.9034424,0.7501221,0.08874512,117.2363,-115.8681,-55.53025,-0.02270508,-0.3824463,-0.8214111
1418,100,0.6470947,0.84375,0.05627441,-70.34927,88.60764,30.84183,-0.02270508,-0.3824463,-0.8214111
1419,100,1.031738,0.350708,-0.1088867,26.40808,-27.29035,5.308533,-0.02270508,-0.3824463,-0.8214111
1420,100,0.9650879,0.4071045,0.03356934,11.62644,-6.459961,0.2168274,-0.02270508,-0.3824463,-0.8214111
1421,100,0.3745117,0.595459,0.2263184,-5.592652,-8.493652,-2.871094,-0.05187988,-0.3203125,-0.9331055
1422,100,1.016235,1.165649,0.121582,-73.25027,54.88724,36.7934,-0.05187988,-0.3203125,-0.9331055
1423,100,0.4393311,0.6274414,-0.01391602,11.27503,0.4859925,-30.0119,-0.05187988,-0.3203125,-0.9331055
1424,100,0.854126,0.7327881,-0.01245117,58.20694,-19.82849,-26.24359,-0.05187988,-0.3203125,-0.9331055
1425,100,0.6397705,0.1518555,0.2272949,7.932892,33.70544,13.80966,-0.05187988,-0.3203125,-0.9331055
1426,100,0.9831543,0.7164307,0.01831055,-48.95066,33.85498,41.17477,-0.05187988,-0.3203125,-0.9331055
1427,100,0.6566162,0.6219482,0.112793,24.56131,1.001892,176395,-0.05187988,-0.3203125,-0.9331055
1428,100,0.9376221,0.4134521,0.1116943,84.95895,-131.9133,-90.28992,-0.0246582,-0.3737793,-0.8566895
1429,100,0.6962891,0.805542,-0.02392578,-50.43854,87.33658,71.9194,-0.0246582,-0.3737793,-0.8566895
1430,100,0.7978516,0.758667,0.06054688,-27.78382,-0.6355286,-54.67041,-0.0246582,-0.3737793,-0.8566895
1431,100,0.7581787,0.7524414,0.1419678,45.616,-21.42105,-41.85516,-0.0246582,-0.3737793,-0.8566895
1432,100,0.5472412,0.1477051,0.3242188,-16.29944,31.05866,20.12756,-0.0246582,-0.3737793,-0.8566895
1433,100,0.6330566,0.387207,-0.006347656,27.27539,37.57843,27.41745,-0.0246582,-0.3737793,-0.8566895
1434,100,0.7113037,0.7254639,0.02612305,15.26764,2.863617,24.28467,-0.03710938,-0.3632813,-0.8236084
1435,100,0.8288574,0.9016113,0.1419678,75.60547,-114.8363,-90.80582,-0.03710938,-0.3632813,-0.8236084
1436,100,0.5666504,0.6917725,0.07397461,-56.71158,90.72358,67.50809,-0.03710938,-0.3632813,-0.8236084
1437,100,0.9697266,0.8848877,0.0489502,-19.2453,-12.44141,9.869385,-0.03710938,-0.3632813,-0.8236084
1438,100,1.00647,0.4089355,-0.007080078,4.934692,-15.17044,3.37204,-0.03710938,-0.3632813,-0.8236084
1439,100,0.5039063,0.5450439,0.2431641,36.58401,-87.97958,-38.79715,-0.03710938,-0.3632813,-0.8236084
1440,100,0.8122559,1.03064,-0.007324219,-75.5307,58.36396,45.54871,-0.03051758,-0.3280029,-0.9244385
1441,100,0.4208984,0.7736816,0.09301758,14.87885,17.72751,-20.77057,-0.03051758,-0.3280029,-0.9244385
1442,100,0.6800537,1.085205,0.3983154,39.31305,-34.30359,-0.19388,-0.03051758,-0.3280029,-0.9244385
1443,100,0.6386719,0.2952881,0.2373047,-43.93372,56.80878,34.42322,-0.03051758,-0.3280029,-0.9244385
1444,100,0.824707,0.6383057,0.2180176,18.54996,16.74805,7.409516,-0.03051758,-0.3280029,-0.9244385
1445,100,0.8895264,0.6601563,0.04711914,7.865601,-1.644898,18.62473,-0.03051758,-0.3280029,-0.9244385
1446,100,0.3693848,0.5880127,0.1464844,3.529053,-98.66395,-47.17865,-0.03808594,-0.3277588,-0.9196777
1447,100,1.112305,1.371582,0.05493164,-72.86148,42.96173,46.78986,-0.03808594,-0.3277588,-0.9196777
1448,100,0.6052246,0.6885986,0.0847168,20.17242,16.3443,9.944153,-0.03808594,-0.3277588,-0.9196777
1449,100,0.6120605,0.9577637,-0.01452637,61.93039,-80.57007,-84.76456,-0.03808594,-0.3277588,-0.9196777
1450,100,0.5863037,0.6954346,0.06677246,-69.86328,72.56989,76.55502,-0.03808594,-0.3277588,-0.9196777
1451,100,1.090088,0.5007324,0.01599121,-36.14288,-40.06821,9.323578,-0.03808594,-0.3277588,-0.9196777
1452,100,0.8809814,0.5297852,0.04406738,10.47501,-13.61527,16.57608,-0.02294922,-0.3548584,-0.8555908
1453,100,0.4505615,0.463623,0.09265137,31.44745,-104.2416,-50.4834,-0.02294922,-0.3548584,-0.8555908
1454,100,0.7545166,1.007935,0.04333496,-116.9896,36.03073,43.39539,-0.02294922,-0.3548584,-0.8555908
1455,100,0.4074707,0.8469238,0.111084,-14.59473,7.416993,-28.36701,-0.02294922,-0.3548584,-0.8555908
1456,100,0.9725342,0.8597412,0.1658936,92.93671,-22.68463,-43.54492,-0.02294922,-0.3548584,-0.8555908
1457,100,0.5606689,0.3172607,0.208374,-45.73563,53.69095,76.83914,-0.02294922,-0.3548584,-0.8555908
1458,100,0.8046875,0.4619141,0.2176514,-66.36414,5.144043,10.33295,-0.02294922,-0.3548584,-0.8555908
1459,100,0.8508301,0.6705322,0.09936523,5.450592,-16.31439,0.70688,-0.01574707,-0.3458252,-0.8300781
1460,100,0.739502,0.7055664,0.2757568,128.1749,-121.7523,-57.00318,-0.01574707,-0.3458252,-0.8300781
1461,100,0.6877441,0.8623047,0.007568359,-43.96362,93.43766,74.58115,-0.01574707,-0.3458252,-0.8300781
1463,100,0.9421387,0.612793,0.02844238,12.28439,-2.527161,-18.96866,-0.01574707,-0.3458252,-0.8300781
1464,100,0.3712158,0.6486816,0.2485352,6.116028,-55.05173,0.09207,-0.01574707,-0.3458252,-0.8300781
1465,100,0.9353027,1.05603,0.07067871,-106.6492,46.1319,4585526,-0.03796387,-0.2463379,-0.9755859
1466,100,0.5114746,0.822876,-0.04650879,6.078644,-17.49573,41357,-0.03796387,-0.2463379,-0.9755859
1467,100,0.866333,0.6962891,0.1604004,11.17035,-23.26035,-31.13342,-0.03796387,-0.2463379,-0.9755859
1468,100,0.5914307,0.08496094,0.269043,-17.20413,47.62726,27.16324,-0.03796387,-0.2463379,-0.9755859
1469,100,0.8170166,0.7531738,0.03051758,-0.6056213,28.53897,32.77832,-0.03796387,-0.2463379,-0.9755859
1470,100,0.9359131,0.574707,0.08569336,21.86218,6.250611,20.20233,-0.03796387,-0.2463379,-0.9755859
1471,100,1.032837,0.5906982,0.3972168,98.6789,-139.3004,-737378,-0.03149414,-0.3482666,-0.8771973
1472,100,0.5023193,0.730957,0.01184082,-40.51682,107.4791,7.68357,-0.03149414,-0.3482666,-0.8771973
1473,100,1.132324,0.3189697,-0.3109131,-2.676697,-61.52665,-64.92859,-0.03149414,-0.3482666,-0.8771973
1474,100,0.8236084,0.7381592,0.08166504,27.37259,-2.15332,-17.8,-0.03149414,-0.3482666,-0.8771973
1475,100,0.5673828,0.4194336,0.1767578,14.26575,12.67319,-5907,-0.03149414,-0.3482666,-0.8771973
1476,100,0.7478027,0.7008057,0.1580811,-50.02732,11.63391,40.6813,-0.03149414,-0.3482666,-0.8771973
1477,100,0.4780273,0.7235107,0.000244141,10.98343,21.29395,-13.11432,-0.04370117,-0.3459473,-0.8575439
1478,100,0.791748,0.9584961,0.06970215,58.35648,-57.29477,-58.27423,-0.04370117,-0.3459473,-0.8575439
1479,100,0.5775146,0.3702393,0.3165283,-35.79147,73.42224,55.02182,-0.04370117,-0.3459473,-0.8575439
1480,100,0.9990234,0.7510986,0.4038086,-14.93866,23.58933,30.90164,-0.04370117,-0.3459473,-0.8575439
1481,100,0.8918457,0.6335449,0.03100586,21.61545,4.09729,13.95172,-0.04370117,-0.3459473,-0.8575439
1482,100,0.8067627,0.5145264,0.0970459,67.14172,-126.9113,-108.4885,-0.04370117,-0.3459473,-0.8575439
1483,100,0.6315918,0.7684326,0.06506348,-43.32809,93.18345,77.77374,-0.001098633,-0.3071289,-0.9580078
1484,100,1.057617,0.395874,-0.008911133,45.63095,9.734802,-74.48395,-0.001098633,-0.3071289,-0.9580078
1485,100,0.869751,0.6948242,0.08532715,15.52933,-6.848755,-19.44717,-0.001098633,-0.3071289,-0.9580078
1486,100,0.5622559,0.2255859,0.100708,-1.884155,16.12747,-13.90686,-0.001098633,-0.3071289,-0.9580078
1487,100,0.8067627,0.6700439,-0.001586914,-33.57834,41.87012,34.49799,-0.001098633,-0.3071289,-0.9580078
1488,100,0.7498779,0.7154541,-0.02087402,28.09036,28.68103,23.02857,-0.001098633,-0.3071289,-0.9580078
1489,100,0.762207,0.8847656,0.2293701,74.5961,-92.14417,-80.72708,-0.001098633,-0.3071289,-0.9580078
1490,100,0.5982666,0.6496582,0.1047363,-55.32837,75.29892,72.16614,-0.0291748,-0.3060303,-0.9544678
1491,100,1.124634,0.5074463,0.0324707,1.764526,-10.13107,5.794526,-0.0291748,-0.3060303,-0.9544678
1492,100,1.05188,0.4077148,0.2037354,18.28827,1.211243,13.3,-0.0291748,-0.3060303,-0.9544678
1493,100,0.2662354,0.6292725,0.1204834,5.525361,-41.98227,-41.51123,-0.0291748,-0.3060303,-0.9544678
1494,100,0.8656006,1.186523,-0.01989746,-56.42746,39.2009,50.18433,-0.0291748,-0.3060303,-0.9544678
1495,100,0.3796387,0.8602295,-0.05480957,-14.49005,-16.37421,-35.08865,-0.0291748,-0.3060303,-0.9544678
1496,100,0.8475342,0.7802734,-0.1158447,28.78571,-43.76175,37.77283,0.001464844,-0.3426514,-0.8781738
1497,100,0.5441895,0.07299805,0.1273193,-1.510315,59.01444,19576,0.001464844,-0.3426514,-0.8781738
1498,100,0.536377,0.5587158,-0.01464844,30.10163,35.56717,32.68112,0.001464844,-0.3426514,-0.8781738
1499,100,0.8214111,0.5653076,0.03723145,34.48303,6.258088,18.58734,0.001464844,-0.3426514,-0.8781738
1500,100,0.7044678,0.7648926,0.02612305,32.21756,-139.1359,-89.43009,0.001464844,-0.3426514,-0.8781738
1501,100,0.6420898,0.8389893,0.03540039,-40.94299,57.62375,71.10443,0.001464844,-0.3426514,-0.8781738
1502,100,0.7719727,0.5319824,-0.1646729,10.59464,-38.8121,6,-0.03662109,-0.3513184,-0.8446045
1503,100,0.8210449,0.6184082,0.1420898,96.89194,-9.046936,-45.15244,-0.03662109,-0.3513184,-0.8446045
1504,100,0.4716797,0.3049316,0.2197266,-56.73401,47.23847,77.3027,-0.03662109,-0.3513184,-0.8446045
1505,100,1.172974,0.9616699,0.05456543,-69.9231,-18.81165,4.299164,-0.03662109,-0.3513184,-0.8446045
1506,100,0.9295654,0.6075439,-0.08654785,13.93677,-10.32547,10.67688,-0.03662109,-0.3513184,-0.8446045
1507,100,0.7772217,0.3491211,0.0222168,49.63105,-96.391,-88.27866,-0.03662109,-0.3513184,-0.8446045
1508,100,0.7751465,0.9150391,-0.008544922,-59.70978,59.26117,74.60358,-0.00793457,-0.2927246,-0.9414063
1509,100,0.7388916,0.5860596,-0.09716797,-14.32556,-42.30377,-61.00327,-0.00793457,-0.2927246,-0.9414063
1510,100,0.840332,1.033813,0.1258545,72.17361,-43.98605,-62.8949,-0.00793457,-0.2927246,-0.9414063
1511,100,0.6369629,0.1159668,0.3149414,-23.46222,64.82391,63.88184,-0.00793457,-0.2927246,-0.9414063
1512,100,0.9428711,0.5327148,0.1898193,-31.754,-23.40241,33.38394,-0.00793457,-0.2927246,-0.9414063
1513,100,0.8881836,0.6096191,-0.09790039,14.10126,-18.61725,9.338531,-0.00793457,-0.2927246,-0.9414063
1514,100,0.293457,0.4616699,0.02160645,-22.31827,-119.5093,-354379,-0.00793457,-0.2927246,-0.9414063
1515,100,0.8029785,1.178833,0.3243408,-106.7539,34.3634,30.90912,-0.0111084,-0.2286377,-0.9842529
1517,100,0.982666,0.9234619,0.1781006,39.15604,-39.0065,-19.34998,-0.0111084,-0.2286377,-0.9842529
1518,100,0.5809326,0.381958,0.2491455,-54.52088,46.93192,64.27811,-0.0111084,-0.2286377,-0.9842529
1519,100,0.9467773,0.5740967,0.2468262,2.586975,46.47583,5.196381,-0.0111084,-0.2286377,-0.9842529
1520,100,0.9157715,0.6018066,0.06689453,11.87317,-7.693635,14.24332,-0.0111084,-0.2286377,-0.9842529
1522,100,0.6838379,0.8494873,0.07348633,-69.75861,50.81986,60.56214,0.04199219,-0.282959,-0.9381104
1523,100,0.5979004,0.7113037,-0.3299561,-24.5987,-29.7876,-63.59772,0.04199219,-0.282959,-0.9381104
1524,100,0.84021,0.6054688,0.1672363,20.62103,10.04135,-14.25079,0.04199219,-0.282959,-0.9381104
1525,100,0.6204834,0.3925781,0.05529785,3.289795,4.837494,-4.11972,0.04199219,-0.282959,-0.9381104
1526,100,0.7072754,0.6184082,0.07202148,-41.33179,53.9003,30.13153,0.04199219,-0.282959,-0.9381104
1527,100,0.6108398,0.8087158,0.1489258,15.29755,28.54645,6.026307,0.02526855,-0.3505859,-0.8504639
1528,100,0.6644287,0.9050293,0.0880127,33.6232,-54.32648,-57.65366,0.02526855,-0.3505859,-0.8504639
1529,100,0.7973633,0.5411377,0.1578369,-55.82184,48.07587,76.44287,0.02526855,-0.3505859,-0.8504639
1530,100,1.204956,0.4550781,0.000610352,14.7966,-6.011353,8.680573,0.02526855,-0.3505859,-0.8504639
1531,100,0.899292,0.607666,-0.03479004,17.11441,-15.5069,14.01154,0.02526855,-0.3505859,-0.8504639
1532,100,0.3851318,0.4604492,0.07006836,0.8523561,-62.26685,-33.05496,0.02526855,-0.3505859,-0.8504639
1534,100,0.4550781,0.9943848,0.05737305,-48.44971,2.983246,-46.17676,0.006347656,-0.3104248,-0.8953857
1535,100,0.635498,1.091309,0.2104492,59.37333,-13.9592,-25.12955,0.006347656,-0.3104248,-0.8953857
1536,100,0.7783203,0.04199219,0.2373047,-14.77417,38.67752,49.44413,0.006347656,-0.3104248,-0.8953857
1537,100,0.7310791,0.4884033,0.1345215,2.579498,28.89786,14.84,0.006347656,-0.3104248,-0.8953857
1538,100,0.8485107,0.642334,-0.07824707,21.66779,-16.83029,19.23782,0.006347656,-0.3104248,-0.8953857
1539,100,0.588623,0.5560303,0.06420898,58.75275,-68.83896,60.27054,0.006347656,-0.3104248,-0.8953857
1540,100,0.6230469,0.8137207,0.07775879,-69.33243,45.72068,58.99949,-0.005615234,-0.1970215,-1.014893
1541,100,0.5839844,0.7336426,-0.1467285,-9.398346,-36.95786,-44.91318,-0.005615234,-0.1970215,-1.014893
1542,100,0.8679199,0.7215576,0.09912109,63.30613,-15.31998,-34.34097,-0.005615234,-0.1970215,-1.014893
1544,100,0.7197266,0.5251465,0.06152344,-14.33304,41.72806,17.38358,-0.005615234,-0.1970215,-1.014893
1545,100,0.8776855,0.5290527,0.1193848,35.94101,15.46951,30.32593,-0.005615234,-0.1970215,-1.014893
1546,100,1.138306,0.138916,0.2354736,97.09382,-78.25974,-19.6773,0.04345703,-0.2581787,-0.9780273
1547,100,0.630249,0.8475342,0.09521484,-59.39576,54.63303,77.95319,0.04345703,-0.2581787,-0.9780273
1548,100,0.6740723,0.8210449,-0.1501465,-34.80453,-61.92292,-51.50772,0.04345703,-0.2581787,-0.9780273
1549,100,0.8873291,0.7950439,0.3809814,85.30289,-28.09036,-65.61646,0.04345703,-0.2581787,-0.9780273
1550,100,0.4084473,0.526001,0.1629639,-72.89139,48.96561,60.95841,0.04345703,-0.2581787,-0.9780273
1551,100,0.942627,0.4147949,-0.262207,18.34808,-52.86103,-22.31079,0.04345703,-0.2581787,-0.9780273
1552,100,0.9277344,0.6390381,0.07116699,65.63889,-2.123413,-23.00614,0.02587891,-0.3077393,-0.9091797
1553,100,0.6132813,0.0871582,0.2805176,-40.17288,68.26324,56.94336,0.02587891,-0.3077393,-0.9091797
1554,100,1.191284,0.7156982,0.2950439,-2.422485,33.49609,-5607605,0.02587891,-0.3077393,-0.9091797
1555,100,0.8059082,0.6643066,-0.06591797,58.03498,28.07541,17.60788,0.02587891,-0.3077393,-0.9091797
1556,100,1.032104,0.4949951,0.1774902,99.09013,-79.62799,-8.0324,0.02587891,-0.3077393,-0.9091797
1557,100,0.6311035,0.814209,-0.06176758,-29.66049,63.7024,76.06903,0.02587891,-0.3077393,-0.9091797
1559,100,0.9200439,0.6070557,0.04406738,9.473114,-27.70905,91614,0.000610352,-0.3052979,-0.8908691
1560,100,0.5161133,0.0925293,0.2324219,-15.10315,-11.17035,7.92191,0.000610352,-0.3052979,-0.8908691
1561,100,1.033203,0.7227783,0.1417236,-43.24585,59.29108,3.52033,0.000610352,-0.3052979,-0.8908691
1562,100,0.831543,0.6904297,-0.05163574,50.03479,20.36682,30.0792,0.000610352,-0.3052979,-0.8908691
1563,100,0.5725098,0.7336426,0.1820068,62.21451,-89.54224,-79.71024,0.000610352,-0.3052979,-0.8908691
1564,100,0.5783691,0.8378906,0.01989746,-28.95767,66.29684,79.12704,-0.03674316,-0.3326416,-0.9205322
1565,100,1.126587,0.3187256,-0.3966064,21.89209,-28.57636,-73.3699,-0.03674316,-0.3326416,-0.9205322
1566,100,0.9274902,0.631958,0.1750488,-9.114227,-19.16306,-30.78201,-0.03674316,-0.3326416,-0.9205322
1567,100,0.4544678,0.2192383,0.3526611,9.009552,-2.938385,766419,-0.03674316,-0.3326416,-0.9205322
1568,100,0.7790527,0.7214355,-0.01257324,-17.55554,52.60682,30.39322,-0.03674316,-0.3326416,-0.9205322
1569,100,0.8193359,0.6241455,-0.01171875,31.95587,26.78192,25.60806,-0.03674316,-0.3326416,-0.9205322
1570,100,1.124634,0.510376,0.1756592,109.0717,-76.74942,-116.9971,-0.03674316,-0.3326416,-0.9205322
1571,100,0.5977783,0.8381348,-0.02819824,-62.93229,59.84436,91.50117,-0.006958008,-0.2478027,-0.9945068
1572,100,0.6380615,0.7322998,-0.1420898,-0.2243042,-32.43439,-69.04831,-0.006958008,-0.2478027,-0.9945068
1573,100,0.8532715,0.7907715,-0.01208496,4.373932,-27.19315,-30.19882,-0.006958008,-0.2478027,-0.9945068
1574,100,0.5074463,-0.04858398,0.1462402,1.248627,49.95255,31.60446,-0.006958008,-0.2478027,-0.9945068
1575,100,0.8930664,0.7060547,0.1075439,-40.80093,75.60547,32.03064,-0.006958008,-0.2478027,-0.9945068
1576,100,0.8869629,0.62854,-0.1375732,33.96713,19.94064,22.87155,-0.006958008,-0.2478027,-0.9945068
1577,100,1.210205,0.2788086,0.09411621,84.89914,-84.12155,-116.8475,0.03503418,-0.2839355,-0.9718018
1579,100,0.7960205,0.5036621,-0.1279297,33.88489,12.83768,-53.72834,0.03503418,-0.2839355,-0.9718018
1580,100,0.7315674,0.7662354,-0.1572266,36.56906,-36.31485,-32.4942,0.03503418,-0.2839355,-0.9718018
1581,100,0.5402832,-0.01953125,0.3018799,3.738404,56.79383,11.55167,0.03503418,-0.2839355,-0.9718018
1583,100,0.7891846,0.621582,-0.1799316,30.47547,-1.001892,29.69788,0.06689453,-0.2926025,-0.9481201
1584,100,0.7591553,0.4388428,0.03723145,86.2001,-101.049,-114.7839,0.06689453,-0.2926025,-0.9481201
1585,100,0.637207,0.9068604,-0.001586914,-64.15848,51.23856,90.02076,0.06689453,-0.2926025,-0.9481201
1586,100,0.5780029,0.5623779,-0.4019775,57.72095,-11.4769,4.94354,0.06689453,-0.2926025,-0.9481201
1587,100,0.7032471,0.7022705,-0.1530762,33.02505,-46.56556,-28.13523,0.06689453,-0.2926025,-0.9481201
1588,100,0.6604004,0.06091309,0.3162842,0.7252503,17.75742,11.37222,0.06689453,-0.2926025,-0.9481201
1589,100,1.001465,0.4068604,0.1263428,-7.858124,34.72229,41.45889,0.06689453,-0.2926025,-0.9481201
1590,100,0.8841553,0.585083,0.09509277,31.08856,11.09558,28.80066,0.002685547,-0.3128662,-0.9083252
1591,100,0.347168,0.6442871,-0.000244141,-22.66968,-98.30506,-44.46457,0.002685547,-0.3128662,-0.9083252
1592,100,0.822998,1.104126,0.02893066,-54.95453,40.50186,41.42899,0.002685547,-0.3128662,-0.9083252
1593,100,0.6485596,0.6922607,0.08398438,17.12189,27.08847,2.818756,0.002685547,-0.3128662,-0.9083252
1594,100,1.02356,1.105713,0.2678223,33.06244,-65.26505,-87.17209,0.002685547,-0.3128662,-0.9083252
1595,100,0.6606445,0.5668945,0.09362793,-55.02182,59.53782,82.22992,0.002685547,-0.3128662,-0.9083252
1596,100,1.445557,0.5075684,0.07751465,-54.02741,-57.96021,-24.88281,0.02099609,-0.2960205,-0.9511719
1597,100,0.8947754,0.6130371,-0.001464844,9.764709,-11.23016,-13.26386,0.02099609,-0.2960205,-0.9511719
1598,100,0.4681396,0.09863281,0.2929688,-10.11612,25.03983,16.31439,0.02099609,-0.2960205,-0.9511719
1599,100,0.7834473,0.3768311,0.3190918,23.82858,19.65652,16.26953,0.02099609,-0.2960205,-0.9511719
1600,100,0.8840332,0.592041,0.1160889,30.4007,5.106659,9.6034,0.02099609,-0.2960205,-0.9511719
1601,100,0.286377,0.6247559,-0.01013184,-26.12396,-25.21927,-32.74841,0.02099609,-0.2960205,-0.9511719
1602,100,0.8369141,1.099976,0.07202148,-69.25018,22.66968,43.62717,0.03515625,-0.2684326,-0.987793
1603,100,0.6193848,0.657959,0.05151367,16.99478,10.08621,-19.1481,0.03515625,-0.2684326,-0.987793
1604,100,1.188354,0.9921875,0.335083,55.16388,-34.14658,-99.56116,0.03515625,-0.2684326,-0.987793
1605,100,0.6968994,0.5799561,0.1256104,-42.20657,57.93778,85.07858,0.03515625,-0.2684326,-0.987793
1606,100,1.287109,0.6949463,-0.1901855,-44.09821,-39.26819,-45.96741,0.03515625,-0.2684326,-0.987793
1607,100,0.8577881,0.644165,-0.07836914,13.63022,-35.30548,3.70102,0.03515625,-0.2684326,-0.987793
1608,100,0.552002,0.09313965,0.2855225,0.8299256,-15.13306,-25.57068,0.04675293,-0.262085,-0.9986572
1609,100,0.6347656,0.6251221,0.06665039,-21.37619,63.97156,35.62698,0.04675293,-0.262085,-0.9986572
1610,100,0.7541504,0.7332764,0.05688477,16.4415,18.37051,8.830109,0.04675293,-0.262085,-0.9986572
1611,100,0.9063721,0.7290039,0.1566162,67.38846,-89.77402,-125.1917,0.04675293,-0.262085,-0.9986572
1612,100,0.6547852,0.7451172,-0.03393555,-41.89255,47.58988,90.66376,0.04675293,-0.262085,-0.9986572
1613,100,1.466675,0.482666,0.2139893,43.18604,4.98703,-81.16821,0.04675293,-0.262085,-0.9986572
1614,100,0.8382568,0.5084229,-0.0958252,-28.68851,-48.39737,-9.832001,0.04650879,-0.2878418,-0.9361572
1615,100,0.4970703,0.2749023,0.2380371,25.54825,17.39105,-635712,0.04650879,-0.2878418,-0.9361572
1616,100,0.7474365,0.4012451,-0.03564453,-16.94244,37.42142,31.22315,0.04650879,-0.2878418,-0.9361572
1617,100,0.8103027,0.5567627,-0.04504395,69.8259,36.36719,30.0792,0.04650879,-0.2878418,-0.9361572
1618,100,0.8919678,0.8416748,0.1639404,53.27225,-81.03363,-110.4923,0.04650879,-0.2878418,-0.9361572
1619,100,0.6199951,0.7042236,0.009643555,-48.12073,38.2962,81.81122,0.04650879,-0.2878418,-0.9361572
1620,100,1.297729,0.7369385,-0.01245117,-54.7078,-55.67978,-7.544098,0.04785156,-0.3125,-0.895874
1622,100,0.4356689,0.5332031,-0.04626465,20.5986,-60.37522,-52.17316,0.04785156,-0.3125,-0.895874
1623,100,0.8242188,0.8475342,0.01586914,-28.71842,53.21244,76.47278,0.04785156,-0.3125,-0.895874
1624,100,0.5626221,0.6341553,-0.0612793,-30.99137,-11.14044,7.88895,0.04785156,-0.3125,-0.895874
1625,100,0.8538818,0.5230713,-0.112915,23.49213,-36.2027,-8478,0.04785156,-0.3125,-0.895874
1626,100,0.6363525,0.0769043,0.3453369,-7.514191,7.132874,-5.00946,0.04785156,-0.3125,-0.895874
1627,100,0.5892334,0.5595703,-0.05322266,9.360962,67.3436,36.15036,0.02197266,-0.2840576,-0.9714355
1628,100,0.901001,0.5089111,0.09631348,26.16135,7.267457,2.19693,0.02197266,-0.2840576,-0.9714355
1629,100,1.142822,0.8032227,0.05187988,65.35477,-107.3969,-118.0887,0.02197266,-0.2840576,-0.9714355
1630,100,0.713623,0.706665,-0.03466797,-45.28702,80.63736,94.19282,0.02197266,-0.2840576,-0.9714355
1631,100,0.7113037,0.4870605,-0.3706055,90.27497,10.81894,-56.46485,0.02197266,-0.2840576,-0.9714355
1632,100,0.8516846,0.6176758,-0.07250977,14.71436,-32.98767,-24.5314,0.02197266,-0.2840576,-0.9714355
1633,100,0.5317383,0.0703125,0.3096924,10.55725,17.52563,4.598236,0.02233887,-0.2573242,-0.9873047
1634,100,0.526001,0.3770752,-0.07507324,19.03595,67.03705,28.08289,0.02233887,-0.2573242,-0.9873047
1635,100,0.8717041,0.5262451,0.04333496,21.08459,8.889923,0.22495,0.02233887,-0.2573242,-0.9873047
1636,100,0.9458008,0.6966553,0.1608887,79.29153,-93.22083,,0.02233887,-0.2573242,-0.9873047
1637,100,0.6270752,0.7650146,-0.02966309,-47.99363,67.62024,99.43406,0.02233887,-0.2573242,-0.9873047
1638,100,1.211914,0.3115234,-0.3314209,33.98956,-19.91821,-74.00543,0.02233887,-0.2573242,-0.9873047
1639,100,0.8557129,0.651123,0.002197266,6.714173,-18.16864,-20.8902,0.04821777,-0.2843018,-0.9472656
1640,100,0.522583,0.1331787,0.1721191,-11.30493,19.44717,-8.845062,0.04821777,-0.2843018,-0.9472656
1641,100,0.5430908,0.4981689,0.08886719,-27.40998,38.7822,28.74832,0.04821777,-0.2843018,-0.9472656
1643,100,0.8336182,0.7313232,0.1702881,68.58475,-95.46387,-121.371,0.04821777,-0.2843018,-0.9472656
1644,100,0.6813965,0.8625488,0.02844238,-55.07416,46.73752,85.31784,0.04821777,-0.2843018,-0.9472656
1645,100,1.308594,0.4448242,0.08325195,24.29215,20.12756,-0.4187012,0.04821777,-0.2843018,-0.9472656
1646,100,0.9763184,0.6015625,0.06811523,5.196381,-24.68094,16.26205,0.0715332,-0.3006592,-0.9122314
1647,100,0.418457,0.6365967,0.08032227,-10.49744,-22.22855,-22.72202,0.0715332,-0.3006592,-0.9122314
1648,100,0.9439697,1.18042,0.1966553,-46.40107,56.21811,39.83643,0.0715332,-0.3006592,-0.9122314
1649,100,0.6794434,0.5637207,0.1970215,23.72391,23.49213,2.108459,0.0715332,-0.3006592,-0.9122314
1650,100,0.8265381,0.8431396,0.1207275,26.49033,-48.17307,-69.84833,0.0715332,-0.3006592,-0.9122314
1651,100,0.592041,0.3455811,0.2042236,-33.73535,57.42936,6004,0.0715332,-0.3006592,-0.9122314
1652,100,0.7579346,0.4420166,0.1815186,-26.55014,25.96695,29.42124,0.03735352,-0.3111572,-0.9140625
1653,100,0.8728027,0.536499,-0.00769043,30.03433,-9.62265,19.55185,0.03735352,-0.3111572,-0.9140625
1654,100,0.5911865,0.5093994,0.06530762,1.256104,-79.74762,-59.73221,0.03735352,-0.3111572,-0.9140625
1655,100,0.7019043,0.8505859,0.03271484,-25.06226,57.07795,81.01868,0.03735352,-0.3111572,-0.9140625
1656,100,0.5927734,0.5419922,-0.2346191,76.00174,20.61356,45.21225,0.03735352,-0.3111572,-0.9140625
1657,100,0.8101807,0.6329346,0.05651855,7.873078,-33.95966,-39.24576,0.03735352,-0.3111572,-0.9140625
1658,100,0.6347656,0.04907227,0.3040771,9.211426,73.89328,38.34854,0.04516602,-0.2663574,-0.9781494
1659,100,0.770874,0.3978271,0.2955322,-21.08459,30.90912,25.03983,0.04516602,-0.2663574,-0.9781494
1660,100,0.9859619,0.5145264,-0.007568359,12.72553,-19.58176,-0.4635621,0.04516602,-0.2663574,-0.9781494
1661,100,0.3900146,0.6323242,-0.03686523,-4.231873,-24.62113,-23.55194,0.04516602,-0.2663574,-0.9781494
1662,100,1.09436,1.11084,0.1674805,-76.3681,28.20252,42.52808,0.04516602,-0.2663574,-0.9781494
1663,100,0.5612793,0.6032715,0.24646,0.1495361,26.1763,-13.42835,0.04516602,-0.2663574,-0.9781494
1664,100,0.9190674,0.9477539,0.1947021,61.0257,-89.00391,-64493,0.05480957,-0.2791748,-0.9644775
1665,100,0.5430908,0.519165,0.1241455,-67.3436,31.98578,70.62592,0.05480957,-0.2791748,-0.9644775
1666,100,1.286621,0.6052246,0.328125,-45.72068,-25.08469,-8.074951,0.05480957,-0.2791748,-0.9644775
1667,100,0.8579102,0.6135254,0.0402832,-1.308441,-17.43591,13.20404,0.05480957,-0.2791748,-0.9644775
1668,100,0.8262939,0.5128174,0.2252197,52.26288,-80.77194,-80.92148,0.05480957,-0.2791748,-0.9644775
1669,100,0.6580811,0.7641602,0.0604248,-36.30737,55.75455,80.10651,0.05480957,-0.2791748,-0.9644775
1670,100,0.7601318,0.4937744,-0.1348877,20.88272,-42.98416,-55.57511,0.05480957,-0.2791748,-0.9644775
1671,100,0.8422852,0.619751,0.06311035,33.35403,-17.86957,28.4343,0.05932617,-0.3193359,-0.8939209
1672,100,0.6271973,-0.04138184,0.2351074,5.443115,40.5542,19.13315,0.05932617,-0.3193359,-0.8939209
1673,100,0.973877,0.6972656,0.1856689,19.92569,62.29676,4042709,0.05932617,-0.3193359,-0.8939209
1674,100,0.8846436,0.6311035,0.005981445,42.43835,23.58185,18.96866,0.05932617,-0.3193359,-0.8939209
1675,100,0.8399658,0.2514648,0.1645508,47.70951,-93.60215,-99.38172,0.05932617,-0.3193359,-0.8939209
1676,100,0.6925049,0.8591309,0.09020996,-56.05362,77.32513,50.99183,0.05932617,-0.3193359,-0.8939209
1677,100,0.5008545,0.6552734,0.2218018,-34.79706,13.13675,-25.99686,0.01306152,-0.333252,-0.8758545
1678,100,1.025024,0.7587891,0.4559326,99.86024,-99.07517,-11.9353,0.01306152,-0.333252,-0.8758545
1679,100,0.5441895,0.6585693,0.2260742,-50.85724,79.62051,87.86743,0.01306152,-0.333252,-0.8758545
1680,100,1.250122,0.6550293,0.3132324,-14.6994,-11.82083,61883,0.01306152,-0.333252,-0.8758545
1681,100,0.8312988,0.6717529,0.05480957,-6.355286,-8.680573,20.70328,0.01306152,-0.333252,-0.8758545
1682,100,0.5554199,0.6911621,-0.4266357,-50.62546,-166.187,-20.81543,0.01306152,-0.333252,-0.8758545
1683,100,0.5074463,0.9053955,-0.3820801,103.2547,209.6347,69.35486,-0.09899902,-0.3780518,-0.7574463
1684,100,0.1131592,0.8623047,-0.0682373,21.24161,-65.70618,-53.05542,-0.09899902,-0.3780518,-0.7574463
1685,100,0.8671875,0.7392578,0.1335449,-4.628143,39.51492,18.00415,-0.09899902,-0.3780518,-0.7574463
1687,100,0.3989258,0.7043457,0.2230225,-6.796418,150.5829,61.3173,-0.09899902,-0.3780518,-0.7574463
1688,100,1.171143,0.5942383,0.385376,-7.409516,-83.56827,-33.09235,-0.09899902,-0.3780518,-0.7574463
1689,100,0.9389648,0.6343994,-0.05310059,-31.8512,-34.61761,32.84561,-0.09899902,-0.3780518,-0.7574463
1690,100,0.6535645,0.5360107,0.0435791,4.07486,-128.7805,-0.13235,-0.03198242,-0.326416,-0.868042
1691,100,0.6813965,0.7530518,-0.01342773,-7.708588,103.7332,86.18515,-0.03198242,-0.326416,-0.868042
1692,100,0.7294922,0.6934814,-0.1118164,22.79679,-19.77615,-60.2855,-0.03198242,-0.326416,-0.868042
1693,100,0.8555908,0.6074219,0.3515625,50.07218,-16.57608,-56.16578,-0.03198242,-0.326416,-0.868042
1694,100,0.5970459,0.2485352,0.3449707,-8.777771,57.29477,53.24982,-0.03198242,-0.326416,-0.868042
1695,100,0.7578125,0.6184082,0.114624,-0.9570313,47.60483,28,-0.03198242,-0.326416,-0.868042
1696,100,0.8198242,0.6303711,0.2255859,42.87949,30.34836,23.694,-0.01147461,-0.2979736,-0.8927002
1697,100,1.099121,1.243408,0.00402832,-38.2962,-136.1826,-8176,-0.01147461,-0.2979736,-0.8927002
1698,100,0.394043,0.8204346,0.01062012,67.3735,117.5055,109.1763,-0.01147461,-0.2979736,-0.8927002
1699,100,0.9298096,0.4111328,0.2235107,34.83444,63.77716,16.57608,-0.01147461,-0.2979736,-0.8927002
1701,100,1.162598,0.8370361,0.3017578,38.21396,-131.8684,-125.8048,-0.01147461,-0.2979736,-0.8927002
1702,100,0.6201172,0.8134766,-0.1087646,20.29953,139.8537,111.3521,-0.05041504,-0.3405762,-0.8782959
1703,100,0.647583,0.6119385,-0.01916504,24.1127,-36.05316,-56.36017,-0.05041504,-0.3405762,-0.8782959
1704,100,0.9813232,0.5533447,0.2087402,37.3317,-1.233673,-0.58176,-0.05041504,-0.3405762,-0.8782959
1705,100,0.2246094,0.4597168,0.1895752,28.19504,1.61499,-7.626343,-0.05041504,-0.3405762,-0.8782959
1706,100,0.8494873,0.9957275,0.1824951,-41.42899,45.18235,48.94318,-0.05041504,-0.3405762,-0.8782959
1707,100,0.440918,0.6881104,0.2711182,-9.817047,63.3136,-26.34827,-0.05041504,-0.3405762,-0.8782959
1708,100,1.130859,0.9151611,0.3707275,105.8865,-109.8044,-102.1332,0.01330566,-0.2661133,-0.9605713
1709,100,0.3775635,0.5633545,0.2473145,-14.78912,88.30857,79.63547,0.01330566,-0.2661133,-0.9605713
1710,100,0.9506836,0.5789795,-0.006225586,9.876862,-22.19864,9.899292,0.01330566,-0.2661133,-0.9605713
1711,100,0.6790771,0.6986084,0.01196289,-3.02063,-15.28259,-4.942169,0.01330566,-0.2661133,-0.9605713
1712,100,0.9268799,0.7271729,0.2773438,86.31226,-146.5155,-91.08994,0.01330566,-0.2661133,-0.9605713
1713,100,0.4437256,0.5703125,0.04711914,4.852448,140.2948,111.4418,0.01330566,-0.2661133,-0.9605713
1714,100,1.138306,0.6003418,0.1967773,20.77805,-27.81372,8.119812,0.01330566,-0.2661133,-0.9605713
1715,100,0.8970947,0.5797119,0.1820068,20.15747,17.15179,2.160797,0.0345459,-0.2797852,-0.9116211
1716,100,0.3123779,0.4460449,0.2032471,-45.99732,-106.5669,0.75653,0.0345459,-0.2797852,-0.9116211
1717,100,1.280518,1.220581,0.2121582,-32.86804,77.03354,73.45963,0.0345459,-0.2797852,-0.9116211
1718,100,0.7493896,0.5008545,0.1793213,49.29459,56.04615,-12.74796,0.0345459,-0.2797852,-0.9116211
1719,100,0.8792725,0.7393799,0.02429199,14.1835,-68.27072,16.90506,0.0345459,-0.2797852,-0.9116211
1720,100,0.3469238,0.1213379,0.5013428,18.71445,14.98352,5.383301,0.0345459,-0.2797852,-0.9116211
1721,100,0.6789551,0.7421875,0.1693115,-62.33414,46.49826,54663,-0.06237793,-0.3104248,-0.8961182
1723,100,0.7171631,0.7443848,0.01794434,11.56662,-107.6959,-62.91733,-0.06237793,-0.3104248,-0.8961182
1724,100,0.47229,0.4022217,0.302002,-52.82364,42.60284,41.58,-0.06237793,-0.3104248,-0.8961182
1725,100,0.6451416,0.6248779,0.04174805,25.30152,68.36044,0.79669,-0.06237793,-0.3104248,-0.8961182
1726,100,0.7973633,0.5667725,0.04138184,41.2645,14.4751,23.40988,-0.06237793,-0.3104248,-0.8961182
1727,100,0.8341064,0.8961182,0.2365723,74.63348,-62.81266,-94.17786,0.0267334,-0.2703857,-0.9434814
1728,100,0.5649414,0.7185059,0.05249023,-69.20532,53.46665,81.15326,0.0267334,-0.2703857,-0.9434814
1729,100,1.151367,0.4802246,-0.4586182,-29.12216,-79.56818,-59.478,0.0267334,-0.2703857,-0.9434814
1730,100,0.7686768,0.7380371,0.1361084,19.20044,-17.43591,-31.71662,0.0267334,-0.2703857,-0.9434814
1731,100,0.5722656,0.3419189,0.3059082,-33.86246,30.09415,41.49628,0.0267334,-0.2703857,-0.9434814
1732,100,0.6459961,0.5462646,-0.04980469,38.63266,49.33945,11.14044,0.0267334,-0.2703857,-0.9434814
1733,100,0.9223633,0.5300293,0.1077881,30.61005,13.98911,25.24918,0.02392578,-0.314209,-0.8809814
1734,100,0.8850098,0.8674316,0.1704102,75.53818,-99.26209,-87.17957,0.02392578,-0.314209,-0.8809814
1735,100,0.5366211,0.6691895,0.1802979,-54.22928,59.44809,9,0.02392578,-0.314209,-0.8809814
1736,100,0.9384766,0.5507813,0.2849121,-22.35565,-4.568329,10.48248,0.02392578,-0.314209,-0.8809814
1738,100,0.7695313,0.5444336,0.239502,109.9913,-133.8274,-79.0463,0.02392578,-0.314209,-0.8809814
1739,100,0.5424805,0.7828369,0.04870605,-39.70184,101.1014,78.013,-0.03112793,-0.2791748,-0.9334717
1740,100,1.459717,0.2711182,0.1844482,-27.65671,-85.7814,-43.53745,-0.03112793,-0.2791748,-0.9334717
1741,100,1.041016,0.4348145,0.09008789,-13.98163,-1.188812,9.929199,-0.03112793,-0.2791748,-0.9334717
1742,100,0.380249,0.5563965,0.08911133,-5.368347,-38.51303,-28.29972,-0.03112793,-0.2791748,-0.9334717
1743,100,0.8101807,1.00647,0.1062012,-35.53726,76.42792,64.30054,-0.03112793,-0.2791748,-0.9334717
1744,100,0.4957275,0.7988281,-0.1154785,5.241241,-8.321686,-57.22001,-0.03112793,-0.2791748,-0.9334717
1745,100,0.7784424,0.6573486,0.0480957,47.00669,-54.52835,,-0.03112793,-0.2791748,-0.9334717
1746,100,0.5935059,0.1008301,0.3704834,-10.39276,40.05325,19.52942,0.007568359,-0.2885742,-0.9296875
1747,100,0.7805176,0.4240723,-0.05041504,-10.06378,27.52213,33.46619,0.007568359,-0.2885742,-0.9296875
1748,100,0.7839355,0.5706787,0.08312988,30.2063,16.92749,23.2753,0.007568359,-0.2885742,-0.9296875
1749,100,0.8277588,0.9971924,0.1862793,55.16388,-102.7239,-80.75699,0.007568359,-0.2885742,-0.9296875
1750,100,0.5181885,0.631958,0.1444092,-51.38062,72.34558,78.22235,0.007568359,-0.2885742,-0.9296875
1751,100,1.072876,0.6914063,0.3178711,-55.89661,-14.12369,9.674988,0.007568359,-0.2885742,-0.9296875
1753,100,1.103271,0.4995117,0.3222656,110.5296,-108.1146,-107.5987,0.02502441,-0.3369141,-0.8701172
1754,100,0.5712891,0.7764893,-0.03405762,-50.4834,82.40189,82.27478,0.02502441,-0.3369141,-0.8701172
1755,100,1.518066,0.256958,-0.1508789,2.168274,-60.12101,-237,0.02502441,-0.3369141,-0.8701172
1756,100,0.8780518,0.6048584,0.0534668,13.69751,2.415009,3.050537,0.02502441,-0.3369141,-0.8701172
1757,100,0.3728027,0.3978271,0.1346436,9.159088,-9.473114,11.64887,0.02502441,-0.3369141,-0.8701172
1758,100,0.9536133,0.9487305,0.1386719,-52.75635,53.60871,44.55429,0.01867676,-0.2657471,-0.9614258
1759,100,0.4744873,0.9110107,-0.1240234,-59.59763,-19.57428,-60.22568,0.01867676,-0.2657471,-0.9614258
1760,100,0.7857666,0.5931396,0.1125488,24.12018,-35.91858,-34.96902,0.01867676,-0.2657471,-0.9614258
1761,100,0.6442871,0.09375,0.303833,-8.00766,25.57816,21.61545,0.01867676,-0.2657471,-0.9614258
1762,100,0.6630859,0.3026123,0.0501709,12.85263,15.29755,975916,0.01867676,-0.2657471,-0.9614258
1763,100,0.8272705,0.5762939,0.04382324,34.87183,28.79318,27.4025,0.01867676,-0.2657471,-0.9614258
1764,100,0.6827393,0.9622803,0.1259766,40.85327,-91.60584,0.18271,0.01867676,-0.2657471,-0.9614258
1765,100,0.4139404,0.4633789,0.3240967,-62.43134,58.82752,7.23847,-0.01928711,-0.2924805,-0.9287109
1766,100,0.8577881,0.4749756,0.03295898,-9.495544,4.000092,35.04379,-0.01928711,-0.2924805,-0.9287109
1767,100,0.805542,0.5837402,-0.07629395,15.17792,-11.25259,25.05478,-0.01928711,-0.2924805,-0.9287109
1768,100,0.6866455,0.7745361,0.317749,97.5499,-68.68195,-61.39954,-0.01928711,-0.2924805,-0.9287109
1769,100,0.5129395,0.637207,0.07849121,-42.57294,72.81662,58.36396,-0.01928711,-0.2924805,-0.9287109
1770,100,1.633301,0.4005127,0.1693115,-44.95804,-75.79239,-11.29746,-0.01928711,-0.2924805,-0.9287109
1771,100,0.8630371,0.5283203,-0.06433105,-3.872986,-18.05649,4.859924,0.01159668,-0.3312988,-0.8657227
1772,100,0.7666016,0.4700928,0.2490234,50.20676,-105.5426,-79.71771,0.01159668,-0.3312988,-0.8657227
1773,100,0.6223145,0.8393555,0.02978516,-45.35431,87.44873,75.02228,0.01159668,-0.3312988,-0.8657227
1774,100,0.956665,0.4237061,-0.3988037,12.41898,-50.23667,-65.88562,0.01159668,-0.3312988,-0.8657227
1775,100,0.8438721,0.6748047,0.09460449,18.75183,0.9794618,-9.884338,0.01159668,-0.3312988,-0.8657227
